"Time (s)"	"Linear Acceleration x (m/s^2)"	"Linear Acceleration y (m/s^2)"	"Linear Acceleration z (m/s^2)"	"Absolute acceleration (m/s^2)"
1.901583333E-2	6.796230447E-1	-1.270426299E0	-3.479811936E0	3.766292816E0
2.900783331E-2	1.661919022E-1	-1.085293511E0	-3.621182992E0	3.783972518E0
3.899883333E-2	1.564311451E-1	-1.027597280E0	-3.757242438E0	3.898371149E0
4.899083331E-2	4.648016042E-1	-1.068063521E0	-3.809225940E0	3.983340617E0
5.898283332E-2	8.793341106E-1	-9.379004073E-1	-3.782650344E0	3.995163236E0
6.897383332E-2	1.223900589E0	-5.593785632E-1	-3.638364451E0	3.879243857E0
7.896583332E-2	1.491413044E0	-1.155000508E-1	-3.426343242E0	3.738646967E0
8.895783333E-2	1.402403803E0	2.464893758E-1	-3.189249757E0	3.492679122E0
9.894883333E-2	1.119025221E0	4.627235037E-1	-2.925861928E0	3.166543622E0
1.089408333E-1	8.814203972E-1	5.943186003E-1	-2.665937989E0	2.870076981E0
1.189328333E-1	4.248972809E-1	7.829041690E-1	-2.343564034E0	2.507143597E0
1.289238333E-1	-3.423018515E-1	9.085821757E-1	-1.939427292E0	2.168886891E0
1.389158333E-1	-9.126465753E-1	9.049577790E-1	-1.629167013E0	2.075104216E0
1.489078333E-1	-1.038773648E0	7.704253337E-1	-1.420742426E0	1.921227453E0
1.588988333E-1	-9.664049989E-1	5.603971481E-1	-1.259439381E0	1.683499670E0
1.688908333E-1	-9.693850324E-1	3.269070098E-1	-9.174035776E-1	1.374119667E0
1.788828333E-1	-8.076577717E-1	2.543951038E-1	-6.127618879E-1	1.045229676E0
1.888738333E-1	-7.459892347E-1	5.001904151E-1	-3.027296501E-1	9.478056925E-1
1.988658333E-1	-9.008521566E-1	5.658140087E-1	2.681006849E-1	1.097067946E0
2.088578333E-1	-1.258460849E0	6.235423994E-1	1.119541238E0	1.796079457E0
2.188488333E-1	-1.753971738E0	7.615527686E-1	2.428127636E0	3.090660656E0
2.288408333E-1	-1.973672972E0	1.057470120E0	3.569163238E0	4.213378013E0
2.388328333E-1	-1.787070487E0	1.552774894E0	4.121681848E0	4.753208606E0
2.488238333E-1	-1.325483097E0	2.064665880E0	4.520349104E0	5.143277813E0
2.588158333E-1	-7.776507381E-1	2.417975115E0	5.459763941E0	6.021658128E0
2.688078333E-1	-2.492789362E-1	2.421058352E0	6.671565471E0	7.101651171E0
2.787988333E-1	9.580224305E-2	1.912578924E0	7.452771608E0	7.694864577E0
2.887908333E-1	1.944973961E-1	9.050276533E-1	7.375773718E0	7.433635869E0
2.987818333E-1	-7.685068622E-2	-2.111844724E-1	6.709826726E0	6.713589175E0
3.087738333E-1	-1.935729513E-1	-1.059415196E0	5.868011275E0	5.966019391E0
3.187658333E-1	1.617696530E-1	-1.994032977E0	4.835405270E0	5.232922803E0
3.287568333E-1	6.111882560E-1	-3.269328837E0	3.950043265E0	5.163807115E0
3.387488333E-1	9.799373563E-1	-3.943984964E0	3.237994485E0	5.196143080E0
3.487408333E-1	1.082355139E0	-3.726927256E0	2.526710522E0	4.630955137E0
3.587318333E-1	6.529210036E-1	-3.093871729E0	2.123361985E0	3.808807456E0
3.687238333E-1	-8.629759401E-3	-2.312377032E0	1.997707660E0	3.055813787E0
3.787158333E-1	-4.645359944E-1	-1.644165413E0	1.690204343E0	2.403302793E0
3.887068333E-1	-4.963830006E-1	-1.313124714E0	1.452790430E0	2.020220937E0
3.986988333E-1	-1.504273702E-1	-1.564194799E0	1.534759038E0	2.196547078E0
4.086908333E-1	2.139768103E-1	-2.272814771E0	1.006978244E0	2.495090828E0
4.186818333E-1	5.482393250E-2	-3.125057562E0	7.618512690E-2	3.126466792E0
4.286738333E-1	-4.923434517E-1	-3.987075436E0	-7.581482273E-1	4.088271192E0
4.386658333E-1	-1.193272362E0	-4.332468710E0	-1.420676937E0	4.713014642E0
4.486568333E-1	-1.683615700E0	-3.921429330E0	-1.344999933E0	4.474504960E0
4.586488333E-1	-1.898892639E0	-3.215518958E0	-5.163991892E-1	3.769883757E0
4.686408333E-1	-1.627835894E0	-2.003929389E0	3.644019878E-1	2.607368694E0
4.786318333E-1	-1.175326380E0	1.678951961E-1	3.140124375E-1	1.228081718E0
4.886238333E-1	-5.806457636E-1	2.237258437E0	-7.171516442E-1	2.420078779E0
4.986158333E-1	4.754072839E-1	2.071392809E0	-1.270282457E0	2.475943816E0
5.086068333E-1	1.093757137E0	-4.797733998E-1	-3.668127948E0	3.857674148E0
5.185988333E-1	2.334587973E0	-3.132539951E0	-5.736272337E0	6.940311799E0
5.285908333E-1	2.841962277E0	-1.823834270E0	-6.988519058E0	7.761605481E0
5.385818333E-1	1.253087697E0	4.472827613E-3	-6.824637975E0	6.938726992E0
5.485738333E-1	-5.320413316E-1	4.640388349E-1	-6.186555889E0	6.226706496E0
5.585658333E-1	-1.541016874E0	5.496508428E-1	-5.695587995E0	5.925923697E0
5.685568333E-1	-2.574522620E0	2.569956529E-1	-5.139964514E0	5.754428615E0
5.785488333E-1	-3.126988605E0	-4.264608264E-1	-4.906346029E0	5.833708763E0
5.885408333E-1	-3.134907196E0	-7.135702246E-1	-4.752198806E0	5.737614408E0
5.985318333E-1	-2.803308088E0	-4.205820358E-1	-4.186515191E0	5.055920780E0
6.085238333E-1	-1.933820397E0	4.338838667E-2	-3.349297990E0	3.867730717E0
6.185158333E-1	-5.813225057E-1	3.998925403E-1	-1.919022848E0	2.044626761E0
6.285068333E-1	8.434705789E-1	7.555965024E-1	-7.668231565E-1	1.367620724E0
6.384988333E-1	1.966123340E0	1.070862291E0	-1.222658640E-1	2.242172155E0
6.484908333E-1	3.051608639E0	1.646217493E0	9.766118985E-1	3.602237933E0
6.584818333E-1	2.890139533E0	1.527874234E0	1.349910425E0	3.536886251E0
6.684738333E-1	2.130280849E0	1.182457278E0	1.405300514E0	2.812680438E0
6.784658333E-1	1.240830325E0	1.351290660E0	6.314788252E-1	1.940209228E0
6.884568333E-1	1.548125079E-1	1.449978212E0	-2.864053935E-1	1.486079331E0
6.984488333E-1	-2.479008206E-1	1.721102784E0	-1.043399380E0	2.027888527E0
7.084408333E-1	-1.047063830E-1	1.953193684E0	-1.448979215E0	2.434228781E0
7.184318333E-1	5.352042368E-2	2.238483721E0	-1.211036130E0	2.545639863E0
7.284238333E-1	3.770582130E-1	2.607142774E0	-3.293724883E-1	2.654779196E0
7.384158333E-1	9.295858859E-1	2.562527349E0	1.105940614E0	2.941730949E0
7.484068333E-1	1.727075861E0	1.857546684E0	3.075952352E0	3.986822493E0
7.583988333E-1	2.473228672E0	1.260427268E0	4.850136745E0	5.588323846E0
7.683908333E-1	2.741112717E0	1.264461554E0	5.502615845E0	6.276252313E0
7.783818333E-1	2.528483690E0	1.473107458E0	5.364403455E0	6.110654611E0
7.883738333E-1	2.113621693E0	1.460262879E0	4.994027951E0	5.616055512E0
7.983658333E-1	1.826405730E0	1.232335197E0	4.785418008E0	5.268266645E0
8.083568333E-1	1.649611071E0	8.791268268E-1	4.996519450E0	5.334724667E0
8.183488333E-1	1.525834725E0	3.710982192E-1	5.370971047E0	5.595821252E0
8.283408333E-1	1.408373518E0	-1.460415199E-1	5.470818686E0	5.651079648E0
8.383318333E-1	1.264878168E0	-6.119754374E-1	5.242940413E0	5.427969684E0
8.483238333E-1	1.078131403E0	-1.011727060E0	4.681595432E0	4.909510643E0
8.583158333E-1	8.304095071E-1	-1.377617602E0	3.883786125E0	4.203713225E0
8.683060833E-1	5.951378318E-1	-1.644049346E0	3.103628978E0	3.562246500E0
8.782980833E-1	4.112164043E-1	-1.743311533E0	2.434445552E0	3.022376412E0
8.882900833E-1	3.325543237E-1	-1.636287313E0	1.783014858E0	2.442779264E0
8.982810833E-1	4.633636642E-1	-1.406981735E0	9.543737680E-1	1.762138694E0
9.082730833E-1	6.497155599E-1	-1.115580480E0	-1.748709244E-1	1.302777785E0
9.182650833E-1	8.013302804E-1	-8.036381033E-1	-1.350019183E0	1.763665562E0
9.282560833E-1	9.308616753E-1	-6.142567286E-1	-2.383877077E0	2.631859553E0
9.382480833E-1	7.346527261E-1	-6.055388224E-1	-3.139465978E0	3.280646052E0
9.482400833E-1	4.041943368E-1	-6.326073378E-1	-3.631046076E0	3.707837741E0
9.582310833E-1	6.590456148E-2	-6.145414880E-1	-3.982856669E0	4.030527497E0
9.682230833E-1	-2.454513489E-1	-6.408823174E-1	-4.209511120E0	4.265086210E0
9.782150833E-1	-4.690287756E-1	-7.150318824E-1	-4.419787520E0	4.501753026E0
9.882060833E-1	-6.122434592E-1	-7.461221127E-1	-4.447261248E0	4.550788159E0
9.981980833E-1	-6.349162571E-1	-6.716987519E-1	-4.301282001E0	4.399468686E0
1.008190083E0	-4.133100729E-1	-5.626429175E-1	-4.145396985E0	4.203773119E0
1.018181083E0	-6.950007834E-2	-5.380031893E-1	-3.942895043E0	3.980037565E0
1.028173083E0	6.461713707E-2	-6.089003867E-1	-3.799975060E0	3.848992792E0
1.038165083E0	-6.958258803E-2	-5.189479905E-1	-3.750256770E0	3.786631035E0
1.048156083E0	-3.148229712E-1	-2.156879979E-1	-3.904346690E0	3.922952700E0
1.058148083E0	-5.285644676E-1	4.401783943E-3	-4.301146345E0	4.333504316E0
1.068140083E0	-6.218783549E-1	7.271948218E-2	-4.598522869E0	4.640951776E0
1.078131083E0	-6.328599375E-1	2.034211242E-1	-4.733320486E0	4.779771404E0
1.088123083E0	-6.176448246E-1	4.310032359E-1	-4.698941782E0	4.758918237E0
1.098115083E0	-4.625812702E-1	5.594051680E-1	-4.622293555E0	4.678943608E0
1.108106083E0	-3.608957049E-1	6.112313792E-1	-4.383350596E0	4.440451774E0
1.118098083E0	-6.051433679E-1	7.342448097E-1	-3.736626325E0	3.855864395E0
1.128090083E0	-6.492096296E-1	9.707936266E-1	-2.754567161E0	2.991914713E0
1.138081083E0	-7.343105178E-1	9.064342010E-1	-1.687448550E0	2.051418413E0
1.148073083E0	-9.323576854E-1	7.857327595E-1	-6.794248241E-1	1.395809770E0
1.158065083E0	-8.503317017E-1	8.877561477E-1	5.923989594E-2	1.230725130E0
1.168056083E0	-7.962800402E-1	1.139612390E0	7.782456923E-1	1.593249717E0
1.178048083E0	-6.162626159E-1	1.416688551E0	1.409439173E0	2.091244808E0
1.188040083E0	2.909521518E-2	1.586479707E0	2.060903782E0	2.600978429E0
1.198031083E0	7.737099340E-1	1.604073979E0	2.755996220E0	3.281340512E0
1.208023083E0	9.745180106E-1	1.554085840E0	3.220163986E0	3.705984923E0
1.218015083E0	5.179321099E-1	1.506861095E0	3.566836047E0	3.906559025E0
1.228006083E0	6.572562754E-3	1.356276873E0	3.714616236E0	3.954478972E0
1.237998083E0	-7.012086260E-1	1.095831071E0	3.950620970E0	4.159320295E0
1.247990083E0	-1.208420378E0	9.952206624E-1	4.272458151E0	4.550235448E0
1.257981083E0	-8.989642368E-1	1.245887874E0	4.301921686E0	4.568030592E0
1.267973083E0	-7.077640857E-1	1.467376894E0	4.117280649E0	4.427880406E0
1.277965083E0	-4.765998235E-1	1.761912549E0	4.360737074E0	4.727315417E0
1.287956083E0	-4.257999448E-1	1.813802787E0	4.470982232E0	4.843642045E0
1.297948083E0	-6.390787438E-1	1.688603375E0	4.710050322E0	5.044241968E0
1.307940083E0	-3.470394118E-1	1.805391860E0	5.375834177E0	5.681502373E0
1.317931083E0	3.185005409E-1	1.935500886E0	6.213471208E0	6.515737159E0
1.327923083E0	8.088829096E-1	1.411901728E0	6.247920079E0	6.456335134E0
1.337915083E0	8.642281213E-1	3.455204514E-1	5.591324539E0	5.668261173E0
1.347906083E0	4.133958077E-1	-2.401524559E-1	4.884737644E0	4.908078152E0
1.357898083E0	-4.027748156E-1	-7.975499824E-1	3.764455563E0	3.869035954E0
1.367890083E0	-1.293413166E0	-1.034338535E0	2.905732888E0	3.344556389E0
1.377881083E0	-1.299676849E0	-6.059586525E-1	1.973642274E0	2.439592103E0
1.387873083E0	-6.185254153E-1	-5.980739745E-1	9.366262990E-1	1.271823491E0
1.397865083E0	6.375710392E-1	-1.287726164E0	6.571504408E-1	1.580057659E0
1.407857083E0	6.900261185E-1	-9.891249400E-1	3.489437038E-1	1.255494285E0
1.417848083E0	5.106980992E-2	-5.920867181E-1	-2.145302492E-1	6.318212050E-1
1.427840083E0	-4.693113423E-1	-7.302537927E-1	-6.666012955E-1	1.094477512E0
1.437832083E0	-1.165795564E-1	-1.651965599E0	-6.767526466E-1	1.789015170E0
1.447823083E0	3.974011148E-1	-2.518035301E0	-6.024327815E-1	2.619418767E0
1.457815083E0	3.836336993E-1	-3.122075482E0	-9.624049187E-1	3.289491352E0
1.467807083E0	-3.299330901E-1	-3.583018801E0	-1.146429074E0	3.776397648E0
1.477798083E0	-5.138028793E-1	-3.861878362E0	-1.180022498E0	4.070694164E0
1.487790083E0	-3.734015836E-1	-3.867261309E0	-1.216065904E0	4.071112263E0
1.497782083E0	-4.757774127E-1	-3.472323699E0	-1.352555121E0	3.756700863E0
1.507773083E0	-6.329411408E-1	-2.828589695E0	-1.362390137E0	3.202755226E0
1.517765083E0	-1.705814947E0	-1.996665393E0	-1.543998808E0	3.046376478E0
1.527757083E0	-2.208178187E0	-1.825358639E0	-2.212261882E0	3.619680608E0
1.537748083E0	-2.150077036E0	-1.970043898E0	-2.893363103E0	4.107974473E0
1.547740083E0	-2.054627673E0	-1.688151093E0	-3.693566260E0	4.551239469E0
1.557732083E0	-1.338048909E0	-1.411142467E0	-4.347460386E0	4.762573858E0
1.567723083E0	-9.743187667E-1	-1.185777912E0	-4.676817087E0	4.922193046E0
1.577715083E0	-5.865686641E-1	-1.029474236E0	-5.214380858E0	5.347302847E0
1.587707083E0	-3.819881101E-1	-6.901456940E-1	-5.388147243E0	5.445580475E0
1.597698083E0	-1.591494425E-1	-4.224709788E-1	-5.555143722E0	5.573457818E0
1.607690083E0	2.782382950E-2	-5.165377682E-1	-5.490537252E0	5.514851289E0
1.617682083E0	-3.434022244E-2	-6.909616730E-1	-4.907190952E0	4.955716933E0
1.627673083E0	-2.359733047E-1	-7.192414391E-1	-4.253416693E0	4.320248282E0
1.637665083E0	-3.982615691E-1	-6.823265049E-1	-3.425319394E0	3.515251725E0
1.647657083E0	-4.814800559E-1	-4.783463868E-1	-2.701064553E0	2.785029269E0
1.657649083E0	-6.381345646E-1	-2.584171110E-1	-2.083012689E0	2.193840693E0
1.667640083E0	-6.654053206E-1	-4.078049925E-1	-1.213478512E0	1.442774844E0
1.677632083E0	-2.674181686E-1	-5.135656285E-1	-1.589857936E-2	5.792364772E-1
1.687624083E0	4.401747398E-1	-6.273243785E-1	3.333236273E0	3.420197908E0
1.697615083E0	3.938183065E-1	-1.210934973E-1	1.918059812E0	1.961812920E0
1.707607083E0	2.601795349E-1	8.076963633E-1	2.470302433E-1	8.837933847E-1
1.717599083E0	4.317930120E-1	9.248935685E-1	2.567331129E-1	1.052513757E0
1.727590083E0	8.009999127E-1	1.438260684E0	-4.569324213E-1	1.708502822E0
1.737582083E0	1.023153177E0	2.075914169E0	-4.356286758E-1	2.355001997E0
1.747574083E0	9.307032157E-1	2.358082670E0	-1.052077818E-1	2.537288125E0
1.757565083E0	8.144788411E-1	2.366720469E0	5.988636410E-1	2.573592668E0
1.767557083E0	9.939388065E-1	2.160956366E0	1.905835038E0	3.047926173E0
1.777549083E0	1.048665383E0	1.723145217E0	3.184443346E0	3.769563363E0
1.787540083E0	1.013994318E0	1.518187444E0	3.934551651E0	4.337484788E0
1.797532083E0	7.798305801E-1	1.642161280E0	4.080363083E0	4.467011562E0
1.807524083E0	6.948472939E-1	1.465591447E0	3.999311904E0	4.315700031E0
1.817515083E0	9.293788945E-1	1.096540923E0	4.185080284E0	4.425047357E0
1.827507083E0	1.045061963E0	8.941816530E-1	4.796645247E0	4.989941979E0
1.837499083E0	9.544930512E-1	5.451157424E-1	5.722524948E0	5.827134797E0
1.847490083E0	9.527776974E-1	1.894234747E-2	6.493535880E0	6.563090155E0
1.857482083E0	9.551336867E-1	-3.899098814E-1	6.535781429E0	6.616702272E0
1.867474125E0	7.023571654E-1	-8.605174783E-1	6.108846393E0	6.209009597E0
1.877466125E0	7.530795684E-1	-1.252803376E0	5.279861487E0	5.478465338E0
1.887457125E0	1.264991751E0	-9.086327541E-1	3.603602169E0	3.925782241E0
1.897449125E0	1.861019492E0	-4.909062061E-1	2.330589062E0	3.022586281E0
1.907441125E0	2.430832265E0	-3.767460448E-1	1.502014046E0	2.882174401E0
1.917432125E0	2.901476992E0	-2.897964862E-1	5.460457420E-1	2.966600191E0
1.927424125E0	3.012041700E0	-1.592457023E-1	-4.096945202E-1	3.043945466E0
1.937416125E0	2.594974134E0	-3.039897251E-1	-1.083548117E0	2.828493774E0
1.947407125E0	1.918253208E0	-6.745198873E-1	-1.589487222E0	2.580918844E0
1.957399125E0	1.370128489E0	-8.329604280E-1	-2.075160463E0	2.622473279E0
1.967391125E0	9.749336015E-1	-1.012664661E0	-2.365491092E0	2.751641937E0
1.977382125E0	6.556501915E-1	-1.300515486E0	-2.842333283E0	3.193755813E0
1.987374125E0	3.591558294E-1	-1.382946901E0	-3.659407411E0	3.928459958E0
1.997366125E0	-1.471286270E-1	-1.423221645E0	-4.311595320E0	4.542803197E0
2.007357125E0	-6.633053662E-1	-1.331275349E0	-4.896166027E0	5.117099747E0
2.017349125E0	-9.791361415E-1	-3.872286406E-1	-5.343213730E0	5.445969754E0
2.027341125E0	-4.163738312E-1	6.293369901E-1	-5.375020829E0	5.427732595E0
2.037332125E0	1.086099257E0	1.926742342E-1	-5.565337758E0	5.673598445E0
2.047324125E0	1.453486103E0	-6.492493907E-1	-5.609129895E0	5.830650461E0
2.057316125E0	8.748381865E-1	-9.527184212E-1	-5.447876551E0	5.599318991E0
2.067307125E0	8.410083164E-2	-1.043962760E0	-5.507580716E0	5.606280098E0
2.077299125E0	-5.497549598E-1	-1.147796738E0	-5.737152928E0	5.876613955E0
2.087291125E0	-7.673300370E-1	-1.103847019E0	-6.007239327E0	6.155826342E0
2.097283125E0	-6.941522793E-1	-9.477938962E-1	-6.324929663E0	6.433109349E0
2.107274125E0	-3.757655398E-1	-9.047317842E-1	-6.517692482E0	6.590906966E0
2.117266125E0	-2.454544187E-2	-9.642994165E-1	-6.315599846E0	6.388840055E0
2.127258125E0	2.907015621E-1	-7.668462530E-1	-6.010272862E0	6.065965748E0
2.137249125E0	4.401580752E-1	-6.162681708E-1	-5.784455733E0	5.833819822E0
2.147241125E0	1.977875147E-1	-4.196078897E-1	-5.787630771E0	5.806191576E0
2.157233125E0	-3.013074611E-1	-2.761388522E-1	-5.956198981E0	5.970204784E0
2.167224125E0	-3.659866198E-1	-3.030720046E-1	-6.221529840E0	6.239650022E0
2.177216125E0	-6.461155023E-2	-2.382731608E-1	-6.620157920E0	6.624759591E0
2.187208125E0	-1.087585400E-1	-6.432609648E-2	-6.740445671E0	6.741629930E0
2.197199125E0	-2.307169867E-1	7.327730656E-2	-6.472159045E0	6.476684537E0
2.207191125E0	-2.580752682E-1	-8.487701297E-2	-5.990415133E0	5.996572389E0
2.217183125E0	-3.035447520E-1	-4.772447714E-1	-5.559053755E0	5.587752736E0
2.227174125E0	-3.601144438E-1	-5.222759333E-1	-5.184077078E0	5.222749249E0
2.237166125E0	-1.043855463E0	-1.334659132E-1	-4.488553115E0	4.610266418E0
2.247158125E0	-1.572542869E0	2.422562841E-1	-3.875152711E0	4.189079579E0
2.257150125E0	-1.219636507E0	2.864849156E-1	-3.565908678E0	3.779588803E0
2.267141125E0	-6.135737007E-1	1.484754235E-2	-3.202518259E0	3.260799953E0
2.277133125E0	3.665414840E-2	-4.662946907E-1	-3.018832072E0	3.054852099E0
2.287125125E0	5.894224343E-1	-9.444411027E-1	-3.087344483E0	3.281932930E0
2.297116125E0	1.045258064E0	-1.056464984E0	-3.448253928E0	3.754881867E0
2.307108125E0	1.309422842E0	-1.254233458E0	-4.314016067E0	4.679575234E0
2.317100125E0	1.246625646E0	-1.957288489E0	-5.521490073E0	5.989316017E0
2.327091125E0	1.067711957E0	-2.639609147E0	-6.355058611E0	6.963785983E0
2.337083125E0	7.164565565E-1	-3.078812225E0	-6.524632543E0	7.250049968E0
2.347075125E0	5.196724606E-1	-3.561330893E0	-5.565067617E0	6.627451605E0
2.357066125E0	7.159593970E-1	-4.433974620E0	-2.769143685E0	5.276446297E0
2.367058125E0	1.959501660E0	-5.645600733E0	1.220044935E0	6.099259302E0
2.377050125E0	3.635028614E0	-7.600095130E0	4.644097822E0	9.619902473E0
2.387042125E0	5.062166140E0	-9.159321257E0	6.725452825E0	1.243987169E1
2.397033125E0	5.776045098E0	-9.534910138E0	6.875773630E0	1.309784224E1
2.407025125E0	5.491010292E0	-9.317627605E0	4.986042994E0	1.190924023E1
2.417017125E0	4.645053257E0	-9.135764580E0	1.798664346E0	1.040547489E1
2.427008125E0	4.135050337E0	-9.369416978E0	-8.447992855E-1	1.027610343E1
2.437000125E0	4.487683049E0	-1.012509593E1	-1.912837663E0	1.123903086E1
2.446992125E0	5.098294331E0	-1.092395656E1	-1.499426653E0	1.214799211E1
2.456983125E0	5.393010373E0	-1.093279872E1	-1.604440892E-1	1.219165252E1
2.466975125E0	5.452014626E0	-1.056262670E1	1.302077277E0	1.195779878E1
2.476967125E0	6.251069389E0	-1.010714264E1	3.024269983E0	1.226280595E1
2.486958125E0	7.671280888E0	-9.438376116E0	5.093516572E0	1.318618236E1
2.496950125E0	9.414812422E0	-8.074883194E0	7.751235715E0	1.462614394E1
2.506942125E0	1.057050524E1	-5.863220651E0	1.030477502E1	1.588399589E1
2.516934125E0	1.061395005E1	-3.040001332E0	1.197394575E1	1.628720113E1
2.526925125E0	1.026748615E1	-3.563059330E-2	1.213625628E1	1.589689460E1
2.536917125E0	8.849136992E0	2.060006819E0	1.047515119E1	1.386649364E1
2.546909125E0	6.294576766E0	3.034386250E0	7.740279787E0	1.042790141E1
2.556900125E0	3.808195660E0	3.587069459E0	5.161707970E0	7.349329946E0
2.566892125E0	1.455824550E0	3.400633619E0	3.231673061E0	4.911969555E0
2.576884125E0	1.375089705E-2	2.908965229E0	2.228185459E0	3.664297781E0
2.586875125E0	-4.495707768E-1	2.969750836E0	2.606991039E0	3.977176912E0
2.596867125E0	-5.391501206E-1	3.142586345E0	4.375239338E0	5.413801904E0
2.606859125E0	2.895406705E-1	2.780220942E0	6.847014100E0	7.395611156E0
2.616850125E0	1.339545650E0	2.103864152E0	7.995946952E0	8.375905598E0
2.626842125E0	1.184430714E0	6.892803061E-1	7.858798170E0	7.977386297E0
2.636834125E0	-2.154815912E-2	-1.258914301E0	6.322010733E0	6.446173225E0
2.646826125E0	-1.408684298E0	-2.747172772E0	3.736712864E0	4.847099413E0
2.656817125E0	-3.062953407E0	-3.079535818E0	2.346634406E0	4.936792225E0
2.666809125E0	-3.366620366E0	-3.348323259E0	1.979781266E0	5.144408148E0
2.676801125E0	-1.979961360E0	-3.478924621E0	2.049618655E0	4.497121317E0
2.686792125E0	-2.129596871E-1	-2.902867752E0	2.774948800E0	4.021484037E0
2.696784125E0	4.939002728E-1	-2.991895119E0	2.918159391E0	4.208447233E0
2.706776125E0	5.181439984E-1	-3.403400814E0	2.494813376E0	4.251553138E0
2.716767125E0	7.406217831E-1	-3.520798579E0	1.495018437E0	3.896103616E0
2.726759125E0	1.096838838E0	-3.289217849E0	-4.554279327E-2	3.467576047E0
2.736751125E0	2.127547422E0	-2.543368070E0	-1.758546014E0	3.753353602E0
2.746742125E0	3.292609819E0	-2.113810558E0	-2.948760209E0	4.899455201E0
2.756734125E0	3.962399016E0	-2.015230595E0	-3.186443093E0	5.469477114E0
2.766726125E0	4.367141529E0	-1.581170728E0	-2.571407223E0	5.308875692E0
2.776718125E0	4.924889889E0	-1.167332286E0	-1.734371286E0	5.350256895E0
2.786709125E0	5.437957335E0	-9.244582433E-1	-1.791281067E0	5.799542299E0
2.796701125E0	5.816945786E0	3.272031713E-1	-2.892024091E0	6.504438757E0
2.806693125E0	5.428902336E0	6.849954665E-1	-3.526372145E0	6.509800294E0
2.816684125E0	5.209332372E0	9.228046507E-1	-4.198513677E0	6.753978774E0
2.826676125E0	6.567628289E0	1.994722071E0	-4.930742952E0	8.451324366E0
2.836668125E0	7.892988594E0	2.504486425E0	-4.094412773E0	9.237745242E0
2.846659125E0	7.752720323E0	3.762903712E0	-2.265722975E0	8.910534066E0
2.856651125E0	9.093097447E0	2.677819532E0	2.124675270E0	9.714390543E0
2.866643875E0	1.039403744E1	1.998616317E0	5.908495642E0	1.212191413E1
2.876634875E0	9.881492736E0	2.234426338E0	7.859868211E0	1.282240570E1
2.886626875E0	8.435223706E0	1.910711616E0	7.695119986E0	1.157664414E1
2.896618875E0	7.486144007E0	2.044193024E0	5.941280395E0	9.773427748E0
2.906610875E0	5.533992004E0	2.341329228E0	3.967546905E0	7.200577650E0
2.916601875E0	5.434884038E0	1.169064231E0	2.913156513E0	6.276237452E0
2.926593875E0	3.714585831E0	2.557385015E-1	3.186150148E0	4.900520670E0
2.936585875E0	2.175465939E0	2.253506387E0	1.579763303E0	3.508075709E0
2.946576875E0	3.216005446E0	1.568972266E0	1.704500785E0	3.963544869E0
2.956568875E0	3.712904171E0	2.521325237E0	9.936161133E-1	4.596739205E0
2.966560875E0	1.733931575E0	2.553391367E0	1.579363938E0	3.467090514E0
2.976551875E0	-8.239019215E-2	3.828099582E0	1.133141277E0	3.993137076E0
2.986543875E0	9.048636389E-1	5.842233240E0	-3.178321896E0	6.712093377E0
2.996535875E0	1.157701337E0	6.780335376E0	-6.692398515E0	9.596948374E0
3.006527875E0	2.032492161E-2	7.000541518E0	-7.815409491E0	1.049231243E1
3.016518875E0	-1.265875411E0	5.274451643E0	-6.785252885E0	8.686883066E0
3.026510875E0	-1.874602135E0	3.887231305E0	-3.703462672E0	5.686856438E0
3.036502875E0	-3.349977436E0	3.513263564E0	-1.078691932E0	4.972820727E0
3.046493875E0	-7.523134663E0	2.719936149E0	-1.024408793E-1	8.000381362E0
3.056485875E0	-1.181339291E1	7.336828923E-1	6.087805188E-1	1.185179971E1
3.066477875E0	-1.036763609E1	1.210629748E0	2.660324078E0	1.077176061E1
3.076468875E0	-9.836747503E0	1.761026696E0	2.536168978E0	1.030994518E1
3.086460875E0	-9.397167279E0	2.116836200E0	1.524049863E0	9.752460015E0
3.096452875E0	-8.818907472E0	3.102655709E0	1.006387529E0	9.402787741E0
3.106444875E0	-8.145069078E0	3.759074663E0	1.219018164E0	9.053109846E0
3.116435875E0	-7.743524991E0	3.504117642E0	2.323185318E0	8.811254721E0
3.126427875E0	-7.543910404E0	3.253685196E0	3.544124584E0	8.947506391E0
3.136419875E0	-7.329237483E0	3.265945053E0	3.829506422E0	8.890963874E0
3.146410875E0	-6.795094333E0	3.263146868E0	3.115588288E0	8.156489739E0
3.156402875E0	-5.725544450E0	3.108495031E0	2.021660779E0	6.821415756E0
3.166394875E0	-4.163283033E0	2.646261816E0	-8.033460349E-2	4.933769438E0
3.176385875E0	-2.723545927E0	2.767371978E0	-1.092863901E0	4.033658586E0
3.186377875E0	-1.211163014E0	2.492467473E0	7.757676423E-2	2.772242433E0
3.196369875E0	1.755041778E-2	1.672726430E0	1.198660498E0	2.057937977E0
3.206361875E0	3.686938441E-1	-3.095988129E-1	9.317435816E-1	1.048776753E0
3.216352875E0	9.057951003E-1	-1.834169662E0	-1.157171871E0	2.350253147E0
3.226344875E0	3.435158504E0	-2.108879163E0	-4.511336791E0	6.049780567E0
3.236336875E0	7.629470372E0	-1.251277399E0	-6.803794405E0	1.029884127E1
3.246327875E0	1.031925740E1	1.489907386E0	-5.937834631E0	1.199853230E1
3.256319875E0	9.885309799E0	2.495696890E0	-4.901697785E0	1.131258122E1
3.266311875E0	6.737016864E0	1.940677134E0	-4.789352599E0	8.490672664E0
3.276302875E0	4.373745959E0	1.363942865E0	-4.440073850E0	6.379988217E0
3.286294875E0	3.261136596E0	-9.256792881E-2	-4.885262139E0	5.874467370E0
3.296286875E0	2.785187860E0	-1.996437791E0	-4.230222835E0	5.444062867E0
3.306278875E0	2.018258868E0	-3.457398974E0	-2.230678858E0	4.582892612E0
3.316269875E0	5.603152871E-1	-3.189507619E0	1.116025600E0	3.425262795E0
3.326261875E0	2.599483214E0	-3.022271916E-1	3.273455802E0	4.190962556E0
3.336253875E0	7.700678349E0	7.879337977E-1	8.346532554E0	1.138357995E1
3.346244875E0	9.897025280E0	-8.227529436E0	2.182487860E-1	1.287210094E1
3.356236875E0	8.176477396E0	-5.623063810E0	1.732553387E-1	9.924900334E0
3.366228875E0	6.530023676E0	-6.700545441E0	-1.480960269E0	9.472685033E0
3.376219875E0	5.682391999E0	-5.688168463E0	-2.252095454E0	8.349657072E0
3.386211875E0	3.977044537E0	-3.324767751E0	-1.938316613E0	5.534260126E0
3.396203875E0	1.034932612E0	3.816239748E-1	-1.801458730E0	2.112338970E0
3.406195875E0	-2.972590536E0	7.862813453E0	2.511016011E0	8.772988733E0
3.416186875E0	-6.680547379E0	4.734237622E0	6.001952859E0	1.015215038E1
3.426178875E0	-6.498545775E0	-3.444010604E0	8.203975098E0	1.101805399E1
3.436170875E0	-7.126901602E0	-1.033752059E1	1.530035423E1	1.979287493E1
3.446161875E0	-4.859039131E0	-1.530892391E1	2.106488441E1	2.648967285E1
3.456153875E0	-1.121098351E-1	-1.496732139E1	1.260760150E1	1.956999984E1
3.466145875E0	4.144425763E0	-1.188617086E1	-1.627538271E0	1.269276185E1
3.476136875E0	6.616727943E0	-5.096246637E0	-6.677719080E0	1.069321049E1
3.486128875E0	5.235061875E0	-2.345797962E0	-6.427077012E0	8.614868533E0
3.496120875E0	2.563010037E-1	-3.923497198E0	-4.709388125E0	6.134970006E0
3.506112875E0	-4.525477113E0	-4.779164118E0	-3.499281118E0	7.454214989E0
3.516103875E0	-6.383090748E0	-4.749855242E0	-2.803468595E0	8.435899980E0
3.526095875E0	-6.607383508E0	-4.954550475E0	-1.601248166E0	8.412436206E0
3.536087875E0	-5.207835485E0	-4.307535013E0	2.829048117E-1	6.764350926E0
3.546078875E0	-3.556713347E0	-2.983721881E0	1.598999473E0	4.910153298E0
3.556070875E0	-2.678852150E0	-1.671144174E0	2.379103410E0	3.953366253E0
3.566062875E0	-2.105549612E0	-6.544379175E-1	3.603643684E0	4.224674657E0
3.576053875E0	-1.750428910E0	-1.238525060E-1	4.481191471E0	4.812527175E0
3.586045875E0	-1.744116840E0	-2.106567612E-1	4.892154837E0	5.198028354E0
3.596037875E0	-1.893088108E0	3.762832376E-1	4.791279257E0	5.165435952E0
3.606029875E0	-1.717807878E0	2.384615873E0	3.960043758E0	4.931450429E0
3.616020875E0	-1.492741531E0	4.791477478E0	2.257753805E0	5.503088764E0
3.626012875E0	-1.365485069E0	6.359542841E0	3.498875175E-1	6.513889459E0
3.636004875E0	-1.646630307E0	7.264466121E0	-9.103600216E-1	7.504173156E0
3.645995875E0	-2.099866118E0	6.720518945E0	-1.929885805E0	7.300635029E0
3.655987875E0	-3.057935911E-1	4.130967811E0	-7.737141732E-1	4.213910108E0
3.665979875E0	2.224311824E0	5.749785837E0	1.020040192E-1	6.165874235E0
3.675970875E0	1.921374013E0	5.052741013E0	-6.569651572E-1	5.445500258E0
3.685962875E0	-3.092229831E-1	5.824966997E-1	-1.615717247E0	1.745125635E0
3.695954875E0	1.173064311E0	-5.049263674E-1	1.021163589E-1	1.281194078E0
3.705946875E0	3.795841078E0	1.104472963E0	2.401020090E0	4.625274856E0
3.715937875E0	3.932895720E0	2.714236575E0	2.474913547E0	5.381444601E0
3.725929875E0	3.775244846E0	3.042381148E0	1.219036802E0	4.999460713E0
3.735921875E0	4.807450317E0	9.184280097E-1	-4.796424953E-1	4.917839513E0
3.745912875E0	5.813681286E0	2.737216133E-1	-1.521684079E0	6.015757313E0
3.755904875E0	6.700283486E0	3.177785121E0	-5.861927978E-1	7.438799571E0
3.765896875E0	6.186814336E0	6.129405788E0	-3.253116701E-1	8.715051040E0
3.775888875E0	6.015351169E0	6.476192454E0	-1.318744181E0	8.936699872E0
3.785879875E0	6.533577613E0	6.855710079E0	-2.540821023E0	9.805313283E0
3.795871875E0	7.304150004E0	5.849939286E0	-1.630274475E0	9.498957406E0
3.805863875E0	9.105997574E0	2.685265376E0	6.607879480E-2	9.493903748E0
3.815854875E0	9.388176600E0	1.514342315E0	5.155829179E-1	9.523492966E0
3.825846875E0	6.537688791E0	2.426570522E0	1.405043821E0	7.113632501E0
3.835838875E0	3.228438381E0	3.098730181E0	2.262686516E0	5.014448463E0
3.845830875E0	4.706985211E-1	4.372666563E0	1.683008759E0	4.708958320E0
3.855821875E0	-1.345123309E0	4.625686694E0	-5.131433865E-1	4.844548508E0
3.865813708E0	-3.386666375E0	4.912293232E0	-3.314013551E0	6.825160786E0
3.875805708E0	-2.655119471E0	2.686548255E0	-5.071465552E0	6.323524632E0
3.885796708E0	6.418371093E0	-4.974893523E0	-2.839006802E0	8.602616618E0
3.895788708E0	2.001567874E1	-1.041908925E1	-4.804277033E0	2.307088846E1
3.905780708E0	1.650122381E1	-6.018665956E0	-2.019967425E0	1.768035620E1
3.915771708E0	9.217399896E0	-5.184535500E0	6.216083744E0	1.226701130E1
3.925763708E0	5.065881461E0	-7.128920646E0	8.229038018E0	1.200840253E1
3.935755708E0	1.689550039E0	-8.178573039E0	2.695793872E0	8.775587780E0
3.945747708E0	1.442170717E0	-1.201907340E1	-1.932533424E0	1.225857525E1
3.955738708E0	1.088198408E0	-1.343518249E1	-3.572414583E0	1.394454912E1
3.965730708E0	-1.587599156E0	-6.863925417E0	-2.067564053E0	7.342258803E0
3.975722708E0	2.685437284E0	-2.502208934E0	8.481836540E-1	3.767232203E0
3.985713708E0	7.207242930E0	-1.770203024E0	2.039662017E0	7.696635014E0
3.995705708E0	3.208564864E0	-6.470459844E0	2.899707332E0	7.782675741E0
4.005697708E0	-3.319947891E0	-8.164896401E0	2.171328449E0	9.077568753E0
4.015688708E0	-3.597514048E0	-6.242274007E0	1.375822946E0	7.334915193E0
4.025680708E0	-2.202650814E0	-3.268955785E0	7.406062880E-1	4.010765539E0
4.035672708E0	-8.963623720E-1	-1.770228751E0	7.048379928E-1	2.105699867E0
4.045664708E0	-7.036597788E-2	-5.886310136E-1	3.107641045E0	3.163679931E0
4.055655708E0	1.233625678E0	-1.402007362E-1	3.508093749E0	3.721318356E0
4.065647708E0	-2.992663443E-1	9.611977610E-1	2.440038999E0	2.639555227E0
4.075639708E0	-4.596548849E0	3.787248302E0	1.895479619E0	6.250148319E0
4.085630708E0	-7.273732204E0	1.611302307E0	2.546807402E0	7.873354002E0
4.095622708E0	-7.159710914E0	-8.145598251E-1	2.663692659E0	7.682462278E0
4.105614708E0	-6.580323763E0	5.190786758E-1	3.419416046E0	7.433875813E0
4.115606708E0	-6.778260199E0	2.242004330E0	3.695892282E0	8.039341671E0
4.125597708E0	-6.283662354E0	3.278900437E0	3.313931983E0	7.824177007E0
4.135589708E0	-7.968536375E0	3.143902845E0	3.484041227E0	9.247715411E0
4.145581708E0	-1.053712582E1	2.516151620E0	3.939232348E0	1.152734103E1
4.155572708E0	-1.203123677E1	2.320863973E0	3.499969627E0	1.274311011E1
4.165564708E0	-1.250763633E1	2.849482381E0	3.622764664E0	1.332985147E1
4.175556708E0	-9.708222780E0	1.898131039E0	3.545644275E0	1.050828646E1
4.185547708E0	-7.337383239E0	1.324770906E0	2.531254393E0	7.873973556E0
4.195539708E0	-6.804714172E0	1.402037475E0	1.800584864E0	7.177182588E0
4.205531708E0	-5.636042874E0	1.292962638E0	1.547187003E0	5.985859945E0
4.215523708E0	-4.607577283E0	2.182068615E0	8.317561939E-1	5.165560011E0
4.225514708E0	-2.562090270E0	4.045672722E0	-1.979446220E-1	4.792802562E0
4.235506708E0	3.781090307E-1	4.475231404E0	-2.076882760E0	4.948141525E0
4.245498708E0	4.401579875E0	2.988013152E0	-5.401715122E0	7.581599717E0
4.255489708E0	1.221079658E1	1.720514847E0	-9.115420947E0	1.533475215E1
4.265481708E0	2.177006096E1	4.845324486E-2	-1.092221526E1	2.435636853E1
4.275473708E0	2.294653712E1	-4.091226625E-1	-6.258997044E0	2.378835831E1
4.285465708E0	1.240896807E1	-3.872599232E-1	-2.709298894E0	1.270719322E1
4.295456708E0	1.462252979E0	-2.682983208E-1	-3.431709232E0	3.739892514E0
4.305448708E0	-2.418156379E0	-7.553462416E-2	-5.226870511E0	5.759632027E0
4.315440708E0	-3.966581529E0	-2.243898243E0	-5.265047566E0	6.963445572E0
4.325431708E0	-3.066796782E0	-3.743862255E0	-2.662318563E0	5.523557478E0
4.335423708E0	-1.630430011E0	-6.107755888E0	1.298560762E0	6.453622553E0
4.345415708E0	-1.821317629E0	-9.655471539E0	5.143061199E0	1.109037452E1
4.355407708E0	-2.663997298E-1	-1.017434936E1	5.901702347E0	1.176513682E1
4.365398708E0	3.087487155E0	-8.193472914E0	6.339627224E-1	8.778808806E0
4.375390708E0	4.494916640E0	-4.572241682E0	-2.521256239E0	6.889586535E0
4.385382708E0	2.977661827E0	-2.301483377E0	-4.213076168E0	5.649186356E0
4.395373708E0	-1.440794867E-1	-3.659417643E0	-3.231789713E0	4.884317878E0
4.405365708E0	-2.288896075E0	-5.034895896E0	7.971058863E-1	5.587897612E0
4.415357708E0	-3.011851666E0	-5.141506425E0	3.831256494E0	7.084127688E0
4.425349708E0	-3.607001740E0	-4.482738352E0	7.532136451E0	9.478316528E0
4.435340708E0	-4.432879436E0	-2.692020957E0	9.072693003E0	1.045041412E1
4.445332708E0	-5.839356410E0	-8.444569311E-1	8.745146016E0	1.054934925E1
4.455324708E0	-6.760779948E0	-6.943966198E-1	7.239671588E0	9.929913236E0
4.465315708E0	-5.541068305E0	-2.387687123E-1	5.111122538E0	7.542149697E0
4.475307708E0	-1.044324410E0	-8.180868655E-1	2.978585979E0	3.260652393E0
4.485299708E0	5.132912187E0	-3.764404693E0	9.284498450E-1	6.432693784E0
4.495291708E0	8.381542173E0	-5.588199787E0	-1.608381915E-1	1.007492407E1
4.505282708E0	6.636711972E0	-1.909538664E0	4.206068864E-1	6.918756671E0
4.515274708E0	2.696002033E0	1.868149733E0	7.511442862E-1	3.364911310E0
4.525266708E0	-7.167341530E-1	2.731354299E0	-3.489232385E-1	2.845303425E0
4.535257708E0	-2.140810661E0	3.574207631E0	-1.181595106E0	4.330611674E0
4.545249708E0	-3.221481364E0	3.568337612E0	-7.513604870E-1	4.865749487E0
4.555241708E0	-4.880130622E0	2.248879486E0	1.108620247E0	5.486544695E0
4.565233708E0	-4.731535331E0	9.323519844E-1	2.690331988E0	5.522190962E0
4.575224708E0	-4.274121099E0	1.267296869E0	4.084413450E0	6.046204243E0
4.585216708E0	-4.200398235E0	5.639937705E-1	5.094530479E0	6.626890304E0
4.595208708E0	-4.308981614E0	2.837279534E0	5.585489602E0	7.603628857E0
4.605199708E0	-2.685505112E0	2.044395922E0	4.030199236E0	5.256804949E0
4.615191708E0	-1.650966017E0	-2.625392227E0	1.512294620E-1	3.105035182E0
4.625183708E0	-2.689264287E0	-1.266249633E-1	-4.358540275E0	5.122992252E0
4.635175708E0	-2.818500617E0	2.790174365E0	-8.838166592E-1	4.063268463E0
4.645166708E0	-1.932728137E0	3.259994050E0	1.167472034E0	3.965600863E0
4.655158708E0	-9.778819138E-1	2.228384995E0	-3.925224904E-1	2.464959762E0
4.665150708E0	-8.320862693E-1	4.890424061E-1	-2.610246769E0	2.782969318E0
4.675141708E0	-1.292017143E0	-8.540834945E-1	-4.533457392E0	4.790720493E0
4.685133708E0	-1.359315671E0	-1.230502680E0	-4.366742164E0	4.736065146E0
4.695125708E0	-8.847919017E-1	-1.830437531E0	-2.808322368E0	3.466991893E0
4.705117708E0	-5.207658899E-1	-1.349946678E-2	-2.259919614E-1	5.678483198E-1
4.715108708E0	9.778883457E-3	1.753820879E0	2.997544114E0	3.472931617E0
4.725100708E0	-5.758168405E-1	2.104620489E0	4.619176989E0	5.108599465E0
4.735092708E0	1.068268758E0	3.759448593E0	3.116547816E0	4.998752059E0
4.745084708E0	6.243430586E0	2.985817523E0	-6.974661157E-2	6.921011224E0
4.755075708E0	9.996437302E0	1.708193302E0	-4.436346835E0	1.106923016E1
4.765067708E0	1.140208689E1	1.017673386E0	-4.588577925E0	1.233281363E1
4.775059708E0	1.124861269E1	7.504375041E-1	-3.791291360E0	1.189404616E1
4.785050708E0	1.052106001E1	1.721247795E0	-2.215533838E0	1.088870920E1
4.795042708E0	9.433784882E0	2.318515731E0	-1.293196526E0	9.800212735E0
4.805034708E0	7.899062097E0	8.366552836E-1	-1.822486487E0	8.149639935E0
4.815026708E0	9.912845507E0	-1.603184910E0	-1.129865082E0	1.010501376E1
4.825017708E0	1.124145452E1	-3.069474807E0	-4.397725245E-1	1.166127674E1
4.835009708E0	9.585848742E0	-1.969086708E0	-1.324523715E-1	9.786896454E0
4.845001708E0	8.916829038E0	-1.048036222E0	1.397571664E0	9.086331855E0
4.854992708E0	1.046425431E1	-1.397962843E0	2.108253949E0	1.076567012E1
4.864984708E0	9.561834812E0	-3.074053177E0	-3.017433345E-1	1.004835991E1
4.874976250E0	5.820892072E0	-3.272181401E0	-3.182426641E0	7.397147759E0
4.884968250E0	5.468164051E0	-4.266868798E0	-4.311411717E0	8.166716501E0
4.894959250E0	8.890567439E0	-4.240159886E0	-4.672975466E0	1.090219450E1
4.904951250E0	8.740088174E0	-4.266256009E0	-2.389877490E0	1.001506845E1
4.914943250E0	3.649095261E0	-5.064223775E0	5.032194482E0	8.017807679E0
4.924934250E0	-2.096191436E0	-4.030055979E0	1.037761027E1	1.132829046E1
4.934926250E0	-6.209337226E0	-4.429191597E0	9.905416034E0	1.250163485E1
4.944918250E0	-6.930717577E0	-6.139388739E0	7.766577054E0	1.208497660E1
4.954910250E0	-6.532477167E0	-4.682021109E0	3.850279241E0	8.911746733E0
4.964901250E0	-3.369167998E0	4.389341068E-1	-1.047919132E0	3.555571776E0
4.974893250E0	7.835203193E-1	5.246741688E-1	-4.517986829E0	4.615343114E0
4.984885250E0	1.122415875E0	-3.562421983E0	-3.679617727E0	5.243114952E0
4.994877250E0	2.203305410E-1	-4.161355791E0	-1.462469180E0	4.416360908E0
5.004868250E0	2.864919323E-1	-4.588293750E0	7.462894893E-1	4.657409706E0
5.014860250E0	4.254010186E-1	-4.078249900E0	2.174496178E0	4.641284510E0
5.024852250E0	1.546231860E-1	-4.579326460E0	2.421206871E0	5.182314336E0
5.034843250E0	1.489815000E0	-4.225319068E0	2.195546447E0	4.989318005E0
5.044835250E0	2.429831222E0	-3.822599106E0	2.444120940E0	5.146850577E0
5.054827250E0	-1.025496376E-1	-2.845832841E0	2.725622566E0	3.941864960E0
5.064819250E0	-1.905744698E0	-3.030190288E0	3.526964175E0	5.025275349E0
5.074810250E0	-8.313232076E0	-7.608713926E0	6.548914275E0	1.303421012E1
5.084802250E0	-9.998187958E0	-4.749405591E0	8.339458008E0	1.385883025E1
5.094794250E0	-3.551432142E0	8.007449595E0	6.036927395E0	1.063844028E1
5.104786250E0	-5.871867514E0	1.003697956E1	3.918297854E0	1.227081272E1
5.114777250E0	-6.550882448E0	5.896866699E0	3.936067542E0	9.652964592E0
5.124769250E0	-5.423500679E0	3.309280230E0	5.830924140E0	8.623535909E0
5.134761250E0	-2.023710520E0	4.057439659E0	7.520871790E0	8.781898049E0
5.144752250E0	-6.042886877E-1	6.650715469E0	6.992319163E0	9.669007620E0
5.154744250E0	-4.284339693E0	6.762339401E0	6.234930489E0	1.014687927E1
5.164736250E0	-5.656376567E0	7.952461794E0	5.239491141E0	1.107648463E1
5.174728250E0	-2.037187475E0	1.210721432E1	4.731075740E-1	1.228652116E1
5.184719250E0	8.442674813E-1	1.450418916E1	-1.031513745E0	1.456531193E1
5.194711250E0	1.789917496E-1	1.235579233E1	-8.320213652E-1	1.238506769E1
5.204703250E0	1.013731778E-2	8.881611843E0	2.182888395E-1	8.884299731E0
5.214695250E0	-8.340732993E-1	7.440286633E0	1.023746889E0	7.556560140E0
5.224686250E0	-2.152270035E0	7.205478240E0	1.882178373E0	7.752017699E0
5.234678250E0	-1.907567422E0	6.041171304E0	2.666370976E0	6.873434249E0
5.244670250E0	-9.116478708E-1	2.755976340E0	1.662379197E0	3.345147534E0
5.254661250E0	7.181287140E0	1.036787349E-1	-3.315319819E0	7.910308450E0
5.264653250E0	6.572302553E0	-5.151925578E0	-3.257413673E0	8.963718082E0
5.274645250E0	1.052665609E0	-8.242457963E0	-4.123190430E0	9.276147771E0
5.284637250E0	-5.558224328E-1	-6.199332055E0	-9.928339459E0	1.171804510E1
5.294628250E0	2.500361214E0	-6.264772924E0	-1.405187663E1	1.558699531E1
5.304620250E0	4.479884326E0	-8.299217470E0	-1.248271550E1	1.564495319E1
5.314612250E0	4.476064047E-1	-5.931763467E0	-7.215497444E0	9.351447626E0
5.324603250E0	-4.594993198E0	-2.355008789E0	-3.163016809E0	6.055138662E0
5.334595250E0	-7.859644847E0	-5.136164993E-1	-3.160793697E0	8.486956806E0
5.344587250E0	-9.080842268E0	-4.064171559E-1	-1.091987404E0	9.155288509E0
5.354579250E0	-1.108969121E1	-1.315544584E0	3.504135768E0	1.170431016E1
5.364570250E0	-1.166534959E1	-1.661270565E0	3.295736325E0	1.223528009E1
5.374562250E0	8.026421471E0	-3.144661814E0	-2.490792246E0	8.973092308E0
5.384554250E0	1.090275222E1	-7.046585417E0	-5.145655024E-1	1.299188784E1
5.394546250E0	3.684921444E0	-1.134298558E1	2.711705316E0	1.223091630E1
5.404537250E0	2.041016524E0	-7.818356488E0	4.645782990E0	9.320715971E0
5.414529250E0	-1.878308101E0	-6.273122163E0	7.985745900E0	1.032725717E1
5.424521250E0	-5.870024471E0	-3.608740702E0	7.223903986E0	9.983235225E0
5.434512250E0	-8.800627322E0	-1.784956133E-1	2.760538337E0	9.225154408E0
5.444504250E0	-6.780709598E0	1.739405739E0	1.717054757E0	7.207761928E0
5.454496250E0	-4.056640345E0	4.138101414E0	7.718510018E0	9.651715449E0
5.464488250E0	-6.902203045E0	3.716572130E0	1.176895290E1	1.414077677E1
5.474479250E0	-5.735359586E0	1.132179410E0	1.295381514E1	1.421187906E1
5.484471250E0	-1.317758048E0	-1.664898178E0	1.308660657E1	1.325773902E1
5.494463250E0	3.626210428E0	-3.492308605E0	1.188211640E1	1.290466240E1
5.504455250E0	4.702650670E0	-4.559956389E0	9.054377770E0	1.117541419E1
5.514446250E0	3.513279937E0	-5.444718470E0	5.331078418E0	8.390976834E0
5.524438250E0	3.092455534E0	-4.263880286E0	3.000349608E-1	5.275791627E0
5.534430250E0	-3.139846632E-1	-1.360014414E0	-1.817105294E0	2.291309064E0
5.544421250E0	-4.811393386E0	9.437254035E-1	-5.301299134E-1	4.931648982E0
5.554413250E0	-5.121902465E0	2.148803220E0	5.000152910E-1	5.576849956E0
5.564405250E0	-2.284482743E0	2.260292666E0	1.552902364E0	3.569214212E0
5.574397250E0	-3.539908011E-1	1.745774526E0	4.148171489E0	4.514461749E0
5.584388250E0	-5.107615963E-3	1.701780075E0	2.999436858E0	3.448579849E0
5.594380250E0	2.134124078E-1	1.315948042E0	-1.526356443E-1	1.341850120E0
5.604372250E0	-5.113412015E-1	-4.692753088E-1	-2.618318850E0	2.708741911E0
5.614364250E0	-5.377505165E-1	2.793934125E-1	-2.617801956E0	2.687028727E0
5.624355250E0	2.289586193E0	2.852699811E0	-4.287412405E-1	3.682922780E0
5.634347250E0	3.393266128E0	3.931859593E0	2.649707288E0	5.830499429E0
5.644339250E0	2.116546909E0	5.171303836E0	4.863325140E0	7.407704475E0
5.654330250E0	-3.921239880E0	1.239962188E1	3.705379974E0	1.352244748E1
5.664322250E0	-2.004131762E1	2.078698496E1	3.405277478E0	2.907488728E1
5.674314250E0	-4.632764749E0	-5.994284821E-1	1.079789293E1	1.176504634E1
5.684306250E0	1.345519634E1	-7.813278766E0	9.775976222E0	1.837550937E1
5.694297250E0	1.481248946E1	-5.994126361E0	-1.438157773E0	1.604393008E1
5.704289250E0	1.297758641E1	-1.058582261E1	-9.265749353E0	1.913978841E1
5.714281250E0	9.336362668E0	-7.576001093E0	-1.002912558E1	1.565716514E1
5.724273250E0	6.910311379E0	-4.173787556E0	-6.650297978E0	1.045941533E1
5.734264250E0	5.931545366E0	-2.044132798E0	-3.966063466E0	7.422356010E0
5.744256250E0	4.580901993E0	-3.800041133E-1	-2.923438257E0	5.447527644E0
5.754248250E0	3.506726670E0	-1.872999998E0	-1.523806765E0	4.257610596E0
5.764240250E0	3.819308586E0	-4.848090219E0	4.852651048E-1	6.190846394E0
5.774231250E0	5.313244995E0	-8.485815570E0	1.414967131E0	1.011146726E1
5.784223250E0	6.856169086E0	-1.012155017E1	-9.776008089E-1	1.226411578E1
5.794215250E0	7.331158878E0	-1.007317148E1	-4.911630743E0	1.339174338E1
5.804206250E0	8.620751181E0	-1.019066309E1	-6.396217747E0	1.480130287E1
5.814198250E0	9.587089521E0	-1.084814273E1	-4.365330062E0	1.512119680E1
5.824190250E0	1.113867217E1	-1.220100132E1	-1.650293587E0	1.660294913E1
5.834182250E0	1.245372032E1	-1.338958824E1	-1.320442797E0	1.833357009E1
5.844173250E0	1.047870162E1	-1.359060850E1	-4.132789219E0	1.765184901E1
5.854165250E0	5.646708781E0	-1.132321263E1	-4.966568257E0	1.359291229E1
5.864157250E0	3.905799723E-1	-1.042865530E1	-3.285035335E0	1.094078887E1
5.874149125E0	3.278428566E-1	-8.379961086E0	-1.510271484E0	8.521276236E0
5.884140125E0	2.732267050E0	-6.650847616E0	6.574813932E-1	7.220203531E0
5.894132125E0	3.827190340E0	-7.175139377E0	2.564457223E0	8.526807833E0
5.904124125E0	3.707078006E0	-6.488158781E0	3.009836715E0	8.055913900E0
5.914115125E0	8.136926830E-1	-4.405230292E0	-9.579725465E-2	4.480773016E0
5.924107125E0	-2.422520448E0	-1.895505347E0	-6.343106318E-1	3.140683973E0
5.934099125E0	-4.832271747E0	-2.181230709E0	5.807358692E0	7.863461872E0
5.944091125E0	-6.302234280E0	-1.720212838E0	8.857971550E0	1.100640491E1
5.954082125E0	-7.866523511E0	-1.056500067E0	7.220045993E0	1.072974598E1
5.964074125E0	-1.054068678E1	6.303935820E-1	3.853629695E0	1.124072665E1
5.974066125E0	-1.108176707E1	3.369716467E0	1.031164666E0	1.162857906E1
5.984057125E0	-8.600454326E0	3.677004606E0	2.936486319E-2	9.353557600E0
5.994049125E0	-4.863473659E0	2.692104279E0	9.236405101E-1	5.635061071E0
6.004041125E0	-9.558564026E-1	1.801856925E0	7.474912383E-1	2.172347346E0
6.014033125E0	2.581864384E0	7.687895751E-1	6.974278164E-1	2.782708513E0
6.024024125E0	7.651608662E-1	-2.279724133E-1	1.414368376E-1	8.108310252E-1
6.034016125E0	-2.347707224E0	1.004651052E0	-4.812176621E-1	2.598581033E0
6.044008125E0	-1.725547838E0	3.103930694E0	-1.186909641E0	3.744416589E0
6.054000125E0	1.279208963E0	5.147133785E0	-1.195541593E0	5.436789629E0
6.063991125E0	5.293833409E0	1.133661328E1	2.376392933E0	1.273541190E1
6.073983125E0	6.254555499E0	1.160294460E1	3.951556524E0	1.376090792E1
6.083975125E0	3.692234264E0	7.094772906E0	4.407706588E0	9.132156033E0
6.093967125E0	1.564942073E0	3.790732951E0	4.730495111E0	6.260693571E0
6.103958125E0	-6.838464155E-1	1.967576373E-1	4.991627085E0	5.042092863E0
6.113950125E0	-2.270074181E0	-3.538886940E-1	6.207942080E0	6.619442489E0
6.123942125E0	-4.253914291E0	5.363878959E-1	7.546027097E0	8.679056614E0
6.133933125E0	-6.412245550E0	3.075106845E0	7.559477447E0	1.037877037E1
6.143925125E0	-5.540016975E0	3.994356388E0	6.287776455E0	9.283469383E0
6.153917125E0	-3.539345947E0	4.209639174E0	5.362075678E0	7.681138411E0
6.163909125E0	-2.243710255E0	3.486361987E0	4.373857641E0	6.026573345E0
6.173900125E0	-2.702583075E0	4.320232826E-1	-8.978440565E-1	2.880403330E0
6.183892125E0	-8.055157904E-1	1.543924549E0	-3.486914549E0	3.897580246E0
6.193884125E0	3.438435284E0	9.157868809E0	1.372441618E1	1.685375323E1
6.203875125E0	2.742246785E0	8.353248666E0	1.018080118E1	1.345159446E1
6.213867125E0	2.220284993E-1	3.600750482E0	5.814374766E0	6.842635063E0
6.223859125E0	3.469457833E-1	8.671818423E-1	5.799875425E0	5.874600469E0
6.233851125E0	1.911465760E0	-1.219362565E0	5.881676218E0	6.303543571E0
6.243842125E0	2.666767417E0	-3.246392841E0	4.079829817E0	5.856255312E0
6.253834125E0	2.773127393E0	-4.425701979E0	6.211503035E-1	5.259553331E0
6.263826125E0	2.920799409E0	-5.165464221E0	-3.556569213E0	6.918256599E0
6.273818125E0	3.154139273E0	-5.157206783E0	-7.336642397E0	9.506403001E0
6.283809125E0	4.695147523E0	-4.186953732E0	-1.045052388E1	1.219788675E1
6.293801125E0	5.699735425E0	-4.284941372E0	-1.203254304E1	1.398677227E1
6.303793125E0	3.510947482E0	-6.181787485E0	-1.188179481E1	1.384623763E1
6.313785125E0	2.038581305E-1	-6.985600712E0	-1.254465154E1	1.435996023E1
6.323776125E0	-1.852539421E0	-6.704350809E0	-1.308668376E1	1.482030748E1
6.333768125E0	-3.262482625E0	-4.801679115E0	-9.679963771E0	1.128723234E1
6.343760125E0	-4.781174391E0	-8.336924994E-1	-4.465179455E0	6.594884329E0
6.353751125E0	-6.389197580E0	6.618147647E-1	-2.556443614E-1	6.428467822E0
6.363743125E0	-8.515671453E0	6.530597287E-1	1.691427580E0	8.706553541E0
6.373735125E0	-9.668220223E0	-1.728857946E-1	1.401389312E0	9.770786242E0
6.383727125E0	-7.671634644E0	-1.472849303E0	3.139697528E0	8.419083308E0
6.393718125E0	-4.613103194E0	-4.099588144E0	5.305533687E0	8.138552189E0
6.403710125E0	-4.803250846E0	-6.075212039E0	3.546126086E0	8.517888837E0
6.413702125E0	-4.652664578E0	-4.276079916E0	7.818642417E-1	6.367374562E0
6.423694125E0	-8.872082636E-1	-2.128423335E0	7.255298272E0	7.612928307E0
6.433685125E0	-1.852058049E0	-1.510601851E0	1.213632761E1	1.236941732E1
6.443677125E0	-5.742273334E0	9.361813259E-1	8.365427831E0	1.018972626E1
6.453669125E0	-5.983776205E0	3.294350535E0	6.589427294E0	9.490989156E0
6.463660125E0	-5.889653574E0	3.809066311E0	8.591965923E0	1.109138782E1
6.473652125E0	-6.925525249E0	3.570497573E0	8.617310679E0	1.161763299E1
6.483644125E0	-7.206074656E0	2.122207160E0	6.632395558E0	1.002097530E1
6.493636125E0	-5.701705352E0	2.181204396E-1	4.804542496E0	7.459265986E0
6.503627125E0	-3.464562398E0	-2.554801716E0	3.610628183E0	5.618437531E0
6.513619125E0	-3.210277075E-1	-5.425610354E0	3.402647400E0	6.412356496E0
6.523611125E0	2.382661002E0	-7.937779436E0	4.661890022E0	9.508871353E0
6.533602125E0	3.551122239E0	-7.814536502E0	5.775956805E0	1.034597153E1
6.543594125E0	4.305852184E0	-5.030008793E0	4.779531908E0	8.166105360E0
6.553586125E0	2.634094345E0	-2.603627136E0	3.084413273E0	4.819847770E0
6.563578125E0	8.667913214E-1	-4.738495857E-1	9.017584750E-1	1.337545877E0
6.573569125E0	7.055813201E-1	4.955000710E-1	1.552171169E-1	8.760466158E-1
6.583561125E0	7.130388589E-1	-1.038672491E0	7.113474056E-1	1.446817228E0
6.593553125E0	1.434771650E0	-3.151349275E0	1.276491323E0	3.690393209E0
6.603545125E0	8.692545341E-1	-2.231704459E0	1.881887766E0	3.045916907E0
6.613536125E0	6.651706280E-1	-3.948841077E-1	9.090267102E-1	1.193614252E0
6.623528125E0	-5.094389561E-1	6.055762446E-1	-7.405159485E-1	1.083796341E0
6.633520125E0	-1.630906705E0	2.020424092E0	-1.308407327E-1	2.599824896E0
6.643512125E0	-7.812261643E-1	2.357756980E0	1.866605483E0	3.107015984E0
6.653503125E0	-7.406296769E-1	1.946504762E0	2.898196996E0	3.568887633E0
6.663495125E0	1.152176595E0	2.065739429E0	2.843607391E0	3.698769159E0
6.673487125E0	2.560993040E0	1.770120578E0	3.469103930E0	4.661190222E0
6.683478125E0	2.924888951E0	2.284559196E0	3.688918308E0	5.232810371E0
6.693470125E0	2.817071557E0	3.514092407E0	2.691452315E0	5.246775502E0
6.703462125E0	3.018577133E0	4.024336817E0	1.971219188E0	5.403036166E0
6.713454125E0	2.982389885E0	4.367284786E0	3.677436715E-1	5.301232049E0
6.723445125E0	2.926362157E0	4.592400250E0	-1.010829805E0	5.538547862E0
6.733437125E0	3.226609080E0	3.711846410E0	-1.011342021E0	5.021117665E0
6.743429125E0	5.576922846E0	2.858994924E0	-1.059617364E0	6.355997905E0
6.753420125E0	8.464436395E0	2.024084449E0	-2.997956343E0	9.204962986E0
6.763412125E0	7.168654230E0	-2.864621115E-1	-3.221022942E0	7.864264289E0
6.773404125E0	3.074701048E0	-3.112423190E0	-1.322654360E0	4.570599436E0
6.783396125E0	3.537375728E0	-3.780772219E0	-2.190641218E0	5.621936904E0
6.793387125E0	7.256090569E0	-4.378226096E0	-3.713607007E0	9.252599154E0
6.803379125E0	9.883638664E0	-3.057580985E0	-5.476536679E0	1.170587753E1
6.813371125E0	5.815225536E0	-4.468904132E0	-1.643101951E0	7.515832368E0
6.823363125E0	5.136636279E0	-6.001334224E0	4.417043714E-1	7.911772714E0
6.833354125E0	7.098418645E0	-6.799652238E0	-5.282878943E-1	9.843876570E0
6.843346125E0	7.228892831E0	-8.421465207E0	-3.025486788E0	1.150354459E1
6.853338125E0	6.618733538E0	-1.131958034E1	-4.619959931E0	1.390268185E1
6.863329125E0	8.977648852E0	-1.253899261E1	-5.212179966E0	1.627855444E1
6.873321625E0	9.468966994E0	-1.198241135E1	-4.153857906E0	1.582700393E1
6.883313625E0	6.170587728E0	-1.062678586E1	-1.980225654E0	1.244692831E1
6.893305625E0	4.773054948E0	-8.735058984E0	-1.467124879E0	1.006159850E1
6.903296625E0	3.362115963E0	-7.544152479E0	-5.303249180E-1	8.276430686E0
6.913288625E0	1.707189627E0	-6.934614746E0	1.509554030E0	7.299461040E0
6.923280625E0	4.391793391E0	-4.821977139E0	-9.090946110E-1	6.585268842E0
6.933272625E0	3.775641579E0	-4.284011080E0	-4.040313749E0	6.995166578E0
6.943263625E0	9.184704021E-1	-4.926478577E0	-4.344825046E0	6.632592535E0
6.953255625E0	-1.433397847E0	-5.233802385E0	-2.056189756E0	5.803036542E0
6.963247625E0	-2.230980574E0	-5.264608440E0	2.899855267E0	6.411126026E0
6.973238625E0	-2.532812384E0	-5.571307765E0	7.036087911E0	9.325295807E0
6.983230625E0	-4.587026366E0	-6.817300304E0	7.549552968E0	1.115850099E1
6.993222625E0	-6.119219354E0	-7.635464938E0	5.162716030E0	1.106339944E1
7.003214625E0	-4.640474595E0	-7.270630841E0	7.692715319E-1	8.659552874E0
7.013205625E0	-2.347561482E0	-5.902987565E0	-2.284540923E0	6.750958031E0
7.023197625E0	-2.021637097E0	-4.798125762E0	-2.497933743E0	5.774833362E0
7.033189625E0	-2.708345506E0	-3.982790011E0	-1.064416320E0	4.932619360E0
7.043180625E0	-2.744956677E0	-3.275503204E0	9.517186935E-1	4.378296115E0
7.053172625E0	-2.438474576E0	-2.681642441E0	2.476832018E0	4.389995591E0
7.063164625E0	-2.557667728E0	-2.298282611E0	3.379136623E0	4.821030127E0
7.073156625E0	-2.441891835E0	-1.373605682E0	3.769186838E0	4.696423929E0
7.083147625E0	-2.669541044E0	-5.297986686E-2	3.780117623E0	4.628017447E0
7.093139625E0	-3.212880402E0	1.571814598E0	3.793101658E0	5.213522973E0
7.103131625E0	-4.090360360E0	4.161271006E0	4.327548570E0	7.264633569E0
7.113123625E0	-3.691622938E0	5.543414792E0	4.717353202E0	8.161553082E0
7.123114625E0	-1.925711478E0	5.326631026E0	4.949622442E0	7.521976143E0
7.133106625E0	-6.158543341E-2	5.797542386E0	5.027513201E0	7.674058866E0
7.143098625E0	4.177722294E-1	6.564259123E0	4.820040249E0	8.154558202E0
7.153089625E0	-3.137572796E-1	6.923310324E0	4.801870903E0	8.431407572E0
7.163081625E0	-8.043708325E-1	7.263419470E0	4.964380814E0	8.834554414E0
7.173073625E0	-1.174791506E0	7.683589861E0	5.257638559E0	9.384053040E0
7.183065625E0	-1.630015444E0	8.149553307E0	5.419498259E0	9.921851180E0
7.193056625E0	-1.944079337E0	8.477033637E0	5.411739004E0	1.024336189E1
7.203048625E0	-2.343840899E0	8.946615924E0	5.362296118E0	1.069063826E1
7.213040625E0	-2.654257299E0	9.206565006E0	5.166322592E0	1.088562401E1
7.223031625E0	-2.739643604E0	9.273925515E0	4.836349595E0	1.081210520E1
7.233023625E0	-2.882704506E0	9.184277759E0	4.489786293E0	1.062163472E1
7.243015625E0	-2.833387335E0	8.810605010E0	3.958857358E0	1.006615100E1
7.253007625E0	-2.803886963E0	8.283691358E0	3.303964527E0	9.348663338E0
7.262998625E0	-2.748051023E0	7.483841958E0	2.540837688E0	8.367528371E0
7.272990625E0	-1.320513110E0	6.545938627E0	1.197904453E0	6.784396986E0
7.282982625E0	1.081281736E0	4.828887963E0	-1.236047887E0	5.100504243E0
7.292973625E0	2.971627500E0	1.704539376E0	-5.136930978E0	6.174470371E0
7.302965625E0	3.782000719E0	-2.934587143E0	-9.072867835E0	1.025827773E1
7.312957625E0	5.538251116E0	-1.009836947E1	-9.575521975E0	1.497798092E1
7.322949625E0	8.189679240E0	-2.107859964E1	-1.348347113E1	2.632835359E1
7.332940625E0	6.717097154E0	-3.021135875E1	-1.682848311E1	3.522844640E1
7.342932625E0	2.347351714E0	-2.310258995E1	-1.257371221E1	2.640715738E1
7.352924625E0	-2.839792083E0	-6.871409268E0	-7.948349447E0	1.088379269E1
7.362916625E0	-8.706671337E0	3.895793383E0	-3.308014893E0	1.009585531E1
7.372907625E0	-1.177077723E1	9.362475749E0	-1.225714980E0	1.509004725E1
7.382899625E0	-1.024026736E1	8.631026493E0	3.298874233E0	1.379276133E1
7.392891625E0	-9.644034385E0	4.355575737E0	6.438610645E0	1.238685377E1
7.402882625E0	-9.148064198E0	-6.269910872E-1	9.836020110E0	1.344721116E1
7.412874625E0	-7.262664594E0	-9.220754444E0	8.523170507E0	1.450562115E1
7.422866625E0	-2.999293601E0	-1.870549781E1	-5.763391138E0	1.980171932E1
7.432858625E0	2.964215277E0	-2.137954413E1	-5.193977584E0	2.220020006E1
7.442849625E0	1.133899368E-1	-1.021857770E1	9.380407405E0	1.387170612E1
7.452841625E0	-6.191873347E0	3.082002466E0	6.419607779E0	9.436598899E0
7.462833625E0	-6.326095598E0	7.425090889E0	4.541678578E0	1.076003274E1
7.472824625E0	-3.542289435E0	9.503154495E0	8.084629333E0	1.296992642E1
7.482816625E0	-2.889824441E-1	1.054528503E1	1.474624635E1	1.813114251E1
7.492808625E0	-3.618604224E-2	1.024298398E1	1.770680624E1	2.045607532E1
7.502800625E0	-3.176128313E0	8.562790071E0	1.383474144E1	1.657737119E1
7.512791625E0	-6.011481482E0	5.259814893E0	7.048825486E0	1.065314522E1
7.522783625E0	-5.083560517E0	-6.679058093E-1	2.040315151E0	5.518294267E0
7.532775625E0	-2.493300117E0	-8.004921259E0	2.042752855E0	8.629492978E0
7.542766625E0	9.644051050E-1	-1.390145818E1	3.735995703E0	1.442699832E1
7.552758625E0	5.060152359E0	-1.471492516E1	3.193221771E0	1.588492460E1
7.562750625E0	6.654899737E0	-1.006813820E1	1.631644185E0	1.217856149E1
7.572742625E0	4.634282978E0	-3.978498740E0	8.346609445E-1	6.164551065E0
7.582733625E0	1.810428944E0	8.808058548E-1	7.913085182E-1	2.163247809E0
7.592725625E0	-4.978531003E-1	3.101615782E0	1.465185066E-1	3.144733032E0
7.602717625E0	-1.716526169E0	4.507170650E0	-7.397674318E-1	4.879375494E0
7.612708625E0	-2.191419921E0	5.351993909E0	-1.470793422E0	5.967360670E0
7.622700625E0	-2.093649066E0	5.544654402E0	-1.449751632E0	6.101502983E0
7.632692625E0	-1.682749143E0	5.185134839E0	-5.431700448E-1	5.478348444E0
7.642684625E0	-1.206211811E0	5.201592413E0	6.953836298E-1	5.384706951E0
7.652675625E0	-1.194183431E0	3.796989471E0	1.606370473E0	4.292275528E0
7.662667625E0	-2.268572031E-1	2.275591321E0	2.060661707E0	3.078328560E0
7.672659625E0	8.374214150E-1	1.157273321E0	2.180065359E0	2.606384686E0
7.682650625E0	6.116479933E-1	-7.151846409E-2	2.024654553E0	2.116235860E0
7.692642625E0	1.186492150E0	2.124427933E-1	1.528123618E0	1.946293234E0
7.702634625E0	1.655525091E0	1.571936220E0	8.893346035E-1	2.450033233E0
7.712626625E0	1.192985629E0	2.724164563E0	-4.633984186E-2	2.974295657E0
7.722617625E0	7.002451511E-1	3.621414542E0	-1.207567050E0	3.881134465E0
7.732609625E0	2.795834470E-1	3.554369783E0	-2.185331946E0	4.181792340E0
7.742601625E0	4.434554663E-1	2.621385714E0	-2.710782040E0	3.796927058E0
7.752592625E0	4.024942589E-1	9.671078342E-1	-2.574913799E0	2.779834574E0
7.762584625E0	9.989929935E-1	-6.550378418E-1	-1.655569092E0	2.041560823E0
7.772576625E0	2.373899973E0	-1.771665412E0	-8.283311874E-1	3.075765266E0
7.782568625E0	4.409785858E0	-2.566063453E0	-1.157669469E0	5.231738865E0
7.792559625E0	6.900706742E0	-3.173349423E0	-2.713611216E0	8.065580322E0
7.802551625E0	8.549487655E0	-4.048433193E0	-4.299291316E0	1.039073897E1
7.812543625E0	8.654610068E0	-5.198856500E0	-4.516396971E0	1.106020913E1
7.822534625E0	7.794367701E0	-5.660301218E0	-2.907367769E0	1.006200602E1
7.832526625E0	6.962308913E0	-5.420042050E0	-1.215006974E0	8.906561805E0
7.842518625E0	6.720396738E0	-5.068573519E0	-1.396639618E0	8.532571245E0
7.852510625E0	6.980249925E0	-4.981251785E0	-3.113189176E0	9.122976774E0
7.862501625E0	7.045379137E0	-5.082203379E0	-4.533077616E0	9.798721908E0
7.872493083E0	6.969791011E0	-5.554726231E0	-4.780474187E0	1.011364938E1
7.882485083E0	7.208917572E0	-7.721241837E0	-3.400449432E0	1.109725752E1
7.892476083E0	6.892537597E0	-9.539417172E0	-8.632421346E-1	1.180053988E1
7.902468083E0	5.629839563E0	-9.028369355E0	5.897677124E-1	1.065618941E1
7.912460083E0	4.508042762E0	-7.955105320E0	2.006569992E-1	9.145841319E0
7.922452083E0	3.735926414E0	-7.242895743E0	-1.045678625E0	8.216454752E0
7.932443083E0	2.948928317E0	-6.302408527E0	-2.457749630E0	7.379503012E0
7.942435083E0	2.307926131E0	-5.444952943E0	-4.242317508E0	7.278138047E0
7.952427083E0	1.331220970E0	-5.175434309E0	-3.992792843E0	6.670806866E0
7.962418083E0	-2.057693660E-1	-5.443312799E0	-1.609154917E0	5.679909754E0
7.972410083E0	-2.026886143E0	-6.351488886E0	3.226981255E0	7.406962031E0
7.982402083E0	-3.988931926E0	-7.762655327E0	7.631529762E0	1.159356037E1
7.992394083E0	-5.830141783E0	-9.318483637E0	7.776200402E0	1.346454541E1
8.002385083E0	-5.835310137E0	-9.302145932E0	3.621992247E0	1.156285394E1
8.012377083E0	-3.442996989E0	-7.694879665E0	-7.790045147E-1	8.465946454E0
8.022369083E0	-1.429630486E0	-6.523611619E0	-2.338545807E0	7.076026312E0
8.032360083E0	-9.436423731E-1	-6.386205559E0	-1.716848935E0	6.679944060E0
8.042352083E0	-1.331253422E0	-6.177019665E0	-9.514763264E-1	6.390079406E0
8.052344083E0	-2.165893316E0	-5.373585337E0	4.046542203E-1	5.807775673E0
8.062336083E0	-3.198338961E0	-4.125348637E0	2.123765004E0	5.635445970E0
8.072327083E0	-3.382949593E0	-2.752780836E0	3.317157015E0	5.479569412E0
8.082319083E0	-3.258183167E0	-9.647554994E-1	3.916112749E0	5.184828810E0
8.092311083E0	-3.306270084E0	7.056074864E-1	3.989019342E0	5.228917585E0
8.102302083E0	-3.553614615E0	1.997524057E0	4.378988865E0	5.982793885E0
8.112294083E0	-2.970405432E0	2.925585939E0	4.506063479E0	6.138971380E0
8.122286083E0	-2.160919821E0	3.646414313E0	4.757513925E0	6.371801202E0
8.132277083E0	-1.815569962E0	4.694981462E0	5.255367501E0	7.277226998E0
8.142269083E0	-1.457642596E0	5.384352400E0	5.349020015E0	7.728388437E0
8.152261083E0	-1.457328308E0	6.611042696E0	5.233605334E0	8.556887057E0
8.162253083E0	-1.918153513E0	7.892674014E0	5.372945067E0	9.738693685E0
8.172244083E0	-2.439643873E0	8.547554566E0	5.697355608E0	1.055804964E1
8.182236083E0	-2.785353336E0	8.857372211E0	5.959825425E0	1.103316613E1
8.192228083E0	-2.689444381E0	8.654562705E0	6.019720209E0	1.087987123E1
8.202219083E0	-2.285107372E0	8.800970553E0	5.921971720E0	1.085120028E1
8.212211083E0	-2.508620699E0	9.582853214E0	5.758000005E0	1.145769687E1
8.222203083E0	-3.466834041E0	1.035757537E1	5.511289605E0	1.223407614E1
8.232195083E0	-4.013770899E0	1.070442285E1	5.261360312E0	1.258478994E1
8.242186083E0	-4.008282994E0	1.061536742E1	4.992539835E0	1.239668552E1
8.252178083E0	-4.097781062E0	1.024561757E1	4.734527936E0	1.200750781E1
8.262170083E0	-4.097157164E0	9.861677692E0	4.321951031E0	1.152035783E1
8.272161083E0	-3.522563853E0	9.470527616E0	3.262170383E0	1.061796144E1
8.282153083E0	-2.134438073E0	8.535205831E0	1.434197161E0	8.914173319E0
8.292145083E0	1.533798487E-1	6.574165476E0	-1.067432314E0	6.662025880E0
8.302137083E0	2.240772467E0	3.395948830E0	-4.710992893E0	6.224707523E0
8.312128083E0	3.399179417E0	-1.244412037E0	-9.474464546E0	1.014240901E1
8.322120083E0	5.533212571E0	-8.104418650E0	-1.108041753E1	1.480113832E1
8.332112083E0	1.204912925E1	-2.036042824E1	-1.460065770E1	2.780121866E1
8.342103083E0	1.133343590E1	-3.340174462E1	-1.759259258E1	3.941601993E1
8.352095083E0	3.806858110E0	-2.948628764E1	-1.277003364E1	3.235748888E1
8.362087083E0	-6.642643826E-1	-1.301422506E1	-1.018892998E1	1.654163218E1
8.372078083E0	-6.866073099E0	-1.848743994E0	-6.594639502E0	9.697942272E0
8.382070083E0	-1.224080449E1	3.405048267E0	-1.003702049E0	1.274515854E1
8.392062083E0	-1.386096153E1	4.408827499E0	6.161838539E0	1.579659041E1
8.402054083E0	-1.525741696E1	1.924242657E0	8.983538167E0	1.780998147E1
8.412045083E0	-1.412769981E1	-5.286428495E0	8.363464336E0	1.724777562E1
8.422037083E0	-6.215585561E0	-1.354899737E1	-1.779194579E0	1.501247371E1
8.432029083E0	2.963678210E0	-1.492873093E1	-5.472654712E0	1.617406397E1
8.442020083E0	3.897411015E0	-7.001308088E0	1.024097254E1	1.300329366E1
8.452012083E0	-3.396406960E0	4.905750782E0	1.437445816E1	1.556364412E1
8.462004083E0	-6.999108365E0	9.219996645E0	4.492444145E0	1.241683979E1
8.471996083E0	-5.202495223E0	8.254243026E0	5.484806396E0	1.119292570E1
8.481987083E0	-1.181796982E0	7.997140954E0	1.530311997E1	1.730711958E1
8.491979083E0	6.894728257E-1	9.316552302E0	2.039009935E1	2.242832297E1
8.501971083E0	-2.870693448E0	8.358177869E0	1.413513279E1	1.667039283E1
8.511962083E0	-6.938425961E0	4.518226565E0	4.075826521E0	9.228677475E0
8.521954083E0	-4.596720173E0	-2.726860714E0	-1.913258663E-1	5.348103522E0
8.531946083E0	2.382738551E-1	-1.070518065E1	3.576870161E0	1.128944938E1
8.541938083E0	5.522249041E0	-1.606010752E1	6.658590499E0	1.824168620E1
8.551929083E0	1.043205838E1	-1.701387727E1	5.458174667E0	2.069037294E1
8.561921083E0	1.071086180E1	-1.209304535E1	2.086045640E0	1.628852028E1
8.571913083E0	6.490615781E0	-4.309476873E0	7.969810483E-1	7.831657738E0
8.581904083E0	2.195851233E0	1.569099736E0	1.939648609E0	3.323563350E0
8.591896083E0	-6.702027418E-1	5.040080622E0	1.976608128E0	5.455141069E0
8.601888083E0	-2.867630677E0	6.303798995E0	5.206289189E-1	6.944943624E0
8.611879083E0	-3.949783941E0	6.130663524E0	-6.827339096E-1	7.324749417E0
8.621871083E0	-3.884813773E0	5.763364826E0	-6.977776261E-1	6.985345073E0
8.631863083E0	-3.534772840E0	5.058891115E0	-7.402550896E-1	6.215703977E0
8.641855083E0	-2.606862693E0	4.251223403E0	-1.029682909E0	5.092040888E0
8.651846083E0	-1.749714672E0	3.377597929E0	-9.596953189E-1	3.923096265E0
8.661838083E0	-1.126725493E0	1.852156429E0	-5.035762453E-1	2.225664576E0
8.671830083E0	2.291491655E-1	5.584868628E-1	5.446833408E-1	8.130786294E-1
8.681821083E0	7.249790195E-1	-1.052744985E0	1.348568489E0	1.858091373E0
8.691813083E0	1.444233469E0	-1.139593095E0	1.386806356E0	2.303847782E0
8.701805083E0	2.013620711E0	3.150216669E-1	1.203410191E0	2.366876234E0
8.711797083E0	1.862576167E0	2.397252583E0	1.378365315E0	3.334051719E0
8.721788083E0	1.044424251E0	4.000650331E0	1.447363629E0	4.380740413E0
8.731780083E0	2.666179772E-1	4.319074493E0	7.687292757E-1	4.395046566E0
8.741772083E0	-8.711050317E-2	3.063287868E0	-7.294641993E-1	3.150149015E0
8.751763083E0	8.467440695E-2	1.391501085E0	-2.614439807E0	2.962893945E0
8.761755083E0	3.943675062E-1	4.510091919E-1	-3.674166368E0	3.722691703E0
8.771747083E0	1.034145869E0	4.455636799E-1	-2.783941818E0	3.003051235E0
8.781738083E0	2.660733383E0	5.318387622E-1	-1.342765274E0	3.027436735E0
8.791730083E0	5.373602879E0	4.800739467E-2	-1.124702868E0	5.490252194E0
8.801722083E0	7.878540709E0	-1.390533371E0	-1.197964825E0	8.089505948E0
8.811714083E0	8.837473551E0	-3.510718564E0	-1.038942486E0	9.565849941E0
8.821705083E0	8.187806962E0	-5.337948312E0	-9.238811231E-1	9.817710087E0
8.831697083E0	6.846892478E0	-6.252577971E0	-1.541130164E0	9.399454775E0
8.841689083E0	5.498153250E0	-6.319030992E0	-2.622291448E0	8.777029923E0
8.851680083E0	4.793498568E0	-5.694973453E0	-3.588363156E0	8.263576785E0
8.861672083E0	5.728186222E0	-4.968737574E0	-4.217915908E0	8.677055093E0
8.871664125E0	7.405689828E0	-4.929928434E0	-4.216524855E0	9.845177401E0
8.881655125E0	8.115992628E0	-5.507656145E0	-3.933083416E0	1.056753319E1
8.891647125E0	8.455478461E0	-7.343681275E0	-3.392625273E0	1.170190911E1
8.901639125E0	8.106184509E0	-9.344588531E0	-1.766370612E0	1.249606447E1
8.911631125E0	6.437050023E0	-8.731241922E0	-6.882751697E-1	1.086940298E1
8.921622125E0	4.777003572E0	-7.125267305E0	-1.287962683E0	8.674563112E0
8.931614125E0	4.327601195E0	-6.548113791E0	-2.030512294E0	8.107336585E0
8.941606125E0	4.256756623E0	-5.717247836E0	-1.828310314E0	7.358642427E0
8.951597125E0	3.930323530E0	-4.564957513E0	-2.333526703E0	6.460002091E0
8.961589125E0	2.966092233E0	-4.500552771E0	-3.426461356E0	6.386964522E0
8.971581125E0	1.271563582E0	-5.362078017E0	-2.187555642E0	5.929093885E0
8.981572125E0	-2.675972396E-1	-6.057354058E0	2.415438008E0	6.526675052E0
8.991564125E0	-2.023291859E0	-6.966587321E0	6.768007107E0	9.921339075E0
9.001556125E0	-4.192299256E0	-8.549427429E0	7.091893737E0	1.187278565E1
9.011548125E0	-5.973314366E0	-9.632598401E0	3.847465560E0	1.196956255E1
9.021539125E0	-5.563905775E0	-9.075220170E0	3.150842321E-1	1.064969233E1
9.031531125E0	-3.623096201E0	-7.341032487E0	-1.556657592E0	8.333112678E0
9.041523125E0	-2.118891204E0	-6.168590904E0	-2.026506951E0	6.829930021E0
9.051514125E0	-1.390392745E0	-5.675390543E0	-1.174431975E0	5.960078881E0
9.061506125E0	-1.616402102E0	-5.169597033E0	-6.020293236E-3	5.416412603E0
9.071498125E0	-2.278128574E0	-4.272177485E0	1.264343441E0	5.003991866E0
9.081489125E0	-2.640311105E0	-3.031646830E0	2.954080006E0	4.988858979E0
9.091481125E0	-2.662818207E0	-1.383514958E0	4.171062169E0	5.138333783E0
9.101473125E0	-2.752911229E0	1.853111279E-1	4.506757544E0	5.284290303E0
9.111465125E0	-3.219043075E0	1.556860344E0	4.138350213E0	5.469185948E0
9.121456125E0	-3.524536411E0	2.267330959E0	3.740114482E0	5.617081354E0
9.131448125E0	-3.213967692E0	2.799985993E0	3.729531898E0	5.663825392E0
9.141440125E0	-2.414146358E0	3.610363889E0	4.252127675E0	6.078109888E0
9.151431125E0	-1.836868445E0	3.870845068E0	5.179247278E0	6.721765362E0
9.161423125E0	-1.453324573E0	4.697486410E0	5.919970218E0	7.695750663E0
9.171415125E0	-1.730585214E0	6.120634965E0	5.989469054E0	8.736752091E0
9.181407125E0	-1.803605682E0	7.598712848E0	5.906875963E0	9.792068936E0
9.191398125E0	-2.310781911E0	8.307266162E0	5.864054464E0	1.042772837E1
9.201390125E0	-2.515639989E0	8.162997810E0	5.825273976E0	1.033909061E1
9.211382125E0	-1.925655929E0	8.187843214E0	5.568690552E0	1.008757859E1
9.221373125E0	-1.627017868E0	8.781123934E0	5.451947967E0	1.046322423E1
9.231365125E0	-2.159355544E0	9.408754706E0	5.345663128E0	1.103465431E1
9.241357125E0	-2.941068197E0	9.508350915E0	5.128761833E0	1.119655381E1
9.251348125E0	-2.974023104E0	9.660134109E0	5.001241077E0	1.127720784E1
9.261340125E0	-3.221875174E0	9.480191894E0	4.991383256E0	1.118786954E1
9.271332125E0	-3.598819439E0	8.823349602E0	4.805165225E0	1.067204818E1
9.281323125E0	-4.007060049E0	8.118779996E0	4.378546523E0	1.005697711E1
9.291315125E0	-4.183462359E0	7.356463289E0	3.770164200E0	9.264612648E0
9.301307125E0	-2.926632006E0	6.125240232E0	2.420196472E0	7.207016981E0
9.311299125E0	-7.994618026E-1	4.152644024E0	3.311140814E-1	4.241842536E0
9.321290125E0	8.583680418E-1	1.514393186E0	-3.443827294E0	3.858772972E0
9.331282125E0	2.285788427E0	-2.532885182E0	-8.682291956E0	9.328586693E0
9.341274125E0	3.688376856E0	-8.347478049E0	-1.059279483E1	1.398183879E1
9.351265125E0	7.585139122E0	-1.834454919E1	-1.417070491E1	2.438986876E1
9.361257125E0	1.031447204E1	-2.920822213E1	-1.888544704E1	3.627903917E1
9.371249125E0	4.322812910E0	-2.435852743E1	-1.307714578E1	2.798278599E1
9.381240125E0	-6.522817567E-1	-7.566174263E0	-7.970622076E0	1.100923616E1
9.391232125E0	-5.674345061E0	3.383046949E0	-3.657985075E0	7.551427238E0
9.401224125E0	-9.936042581E0	8.767749597E0	-1.140866911E0	1.330037415E1
9.411216125E0	-1.095672787E1	7.366291873E0	5.143535408E0	1.416926597E1
9.421207125E0	-1.210558763E1	1.773882092E0	8.150844373E0	1.470129836E1
9.431199125E0	-1.245938628E1	-2.798708376E0	6.661447449E0	1.440291488E1
9.441191125E0	-9.297020262E0	-7.894643941E0	2.220550895E0	1.239721077E1
9.451182125E0	-4.859722378E0	-1.559652155E1	-6.370869482E0	1.753443367E1
9.461174125E0	2.860155596E0	-1.871302435E1	-5.965319468E0	1.984799251E1
9.471166125E0	3.574741482E0	-9.835355866E0	1.258530490E1	1.636773964E1
9.481157125E0	-3.254678638E0	2.205309543E0	1.075872126E1	1.145453650E1
9.491149125E0	-4.679326420E0	6.138815712E0	4.219275386E0	8.796785712E0
9.501141125E0	-3.092681236E0	6.986011187E0	7.546765015E0	1.073884033E1
9.511132125E0	-3.192337087E-1	7.873207464E0	1.563592009E1	1.750917768E1
9.521124125E0	-6.435895783E-1	8.069831784E0	1.777389836E1	1.953069010E1
9.531116125E0	-4.596657608E0	6.437587382E0	1.164410432E1	1.407682343E1
9.541108125E0	-7.875279717E0	3.069033342E0	3.509904339E0	9.151962890E0
9.551099125E0	-6.058767915E0	-2.311444108E0	4.903054047E-1	6.503217811E0
9.561091125E0	-2.889525576E0	-7.899752653E0	2.843021500E0	8.879088990E0
9.571083125E0	2.046580296E-1	-1.116038522E1	2.099194566E0	1.135793559E1
9.581074125E0	2.765545893E0	-1.149375720E1	1.094099126E0	1.187231029E1
9.591066125E0	3.458777455E0	-7.183775130E0	1.573574902E0	8.126863145E0
9.601058125E0	1.612531684E0	-2.297310219E0	1.908033883E0	3.393889505E0
9.611049125E0	-2.322762929E-1	1.543100676E0	1.358095211E0	2.068703598E0
9.621041125E0	-2.057834140E0	3.351840944E0	2.253027208E-1	3.939578705E0
9.631033125E0	-2.631848137E0	4.280594552E0	-3.436186445E-1	5.036684237E0
9.641025125E0	-2.657132667E0	4.418240347E0	-4.276161631E-1	5.173399014E0
9.651016125E0	-1.411115278E0	3.911933452E0	1.343527166E-1	4.160831685E0
9.661008125E0	6.822784846E-1	3.864383309E0	7.918977714E-1	4.003256721E0
9.671000125E0	2.318317803E0	3.512613062E0	1.781252507E0	4.570110332E0
9.680991125E0	3.906539980E0	2.541795754E0	3.472182489E0	5.811869881E0
9.690983125E0	5.106678069E0	1.702134417E0	4.810257565E0	7.219002723E0
9.700975125E0	4.064909185E0	8.993193090E-2	5.096440179E0	6.519607115E0
9.710966125E0	3.815085142E0	-2.557425946E-1	4.253575737E0	5.719544166E0
9.720958125E0	4.691831275E0	8.216408032E-1	2.353828236E0	5.313085891E0
9.730950125E0	4.061387115E0	1.313430816E0	-1.914828640E-1	4.272777959E0
9.740942125E0	2.673666254E0	2.229707635E0	-2.573667757E0	4.329417178E0
9.750933125E0	4.838462779E-1	2.917368847E0	-4.308726091E0	5.225922764E0
9.760925125E0	-1.409463878E0	3.851574984E0	-4.999795645E0	6.466774680E0
9.770917125E0	-2.867432456E0	3.900751821E0	-4.326810944E0	6.493021377E0
9.780908125E0	-2.847488188E0	2.756869209E0	-2.873333466E0	4.895361276E0
9.790900125E0	-1.192198155E0	1.011759512E0	-1.770676502E0	2.362263538E0
9.800892125E0	1.144255372E0	-9.268678808E-1	-4.735157096E-1	1.546810122E0
9.810883125E0	3.581271653E0	-2.252999434E0	7.335355425E-1	4.294134079E0
9.820875125E0	5.337082340E0	-2.688397729E0	7.718874300E-1	6.025590465E0
9.830867125E0	6.401750382E0	-2.819229180E0	-7.299456444E-1	7.033013704E0
9.840858125E0	6.979459966E0	-3.588484778E0	-2.730260285E0	8.309296339E0
9.850850125E0	7.523331129E0	-4.496993571E0	-3.366360750E0	9.389134526E0
9.860842125E0	8.010730467E0	-4.834417675E0	-2.579610282E0	9.705554394E0
9.870834125E0	8.229996961E0	-5.019182673E0	-2.343812686E0	9.920609991E0
9.880825708E0	7.940986633E0	-5.419351494E0	-3.172062159E0	1.012376499E1
9.890817708E0	6.841716523E0	-5.808953227E0	-4.270121019E0	9.939162746E0
9.900809708E0	5.546423770E0	-6.186172897E0	-4.797714118E0	9.594248928E0
9.910800708E0	4.985305660E0	-6.550881279E0	-4.356063395E0	9.313571084E0
9.920792708E0	5.554851362E0	-8.236003806E0	-3.430697663E0	1.050989147E1
9.930784708E0	5.912946543E0	-1.029423599E1	-2.306311861E0	1.209352331E1
9.940775708E0	5.237837548E0	-9.468868176E0	-1.983032318E0	1.100121920E1
9.950767708E0	5.020290720E0	-7.345890938E0	-2.746913155E0	9.311872233E0
9.960759708E0	5.461341519E0	-6.053711243E0	-3.103740660E0	8.723925555E0
9.970750708E0	5.537680428E0	-4.977892560E0	-3.380632634E0	8.177652222E0
9.980742708E0	5.151439674E0	-4.471244772E0	-3.382023686E0	7.613635449E0
9.990734708E0	3.735212176E0	-4.955438082E0	-2.087498088E0	6.547199772E0
1.000072671E1	1.458816571E0	-5.771571978E0	1.079260354E0	6.050123287E0
1.001071771E1	-1.612600681E-1	-6.386611356E0	6.391265155E0	9.036762678E0
1.002070971E1	-1.605325429E0	-8.027220785E0	9.224844571E0	1.233333291E1
1.003070171E1	-3.766545358E0	-9.791937951E0	8.300824285E0	1.337806401E1
1.004069271E1	-3.614359292E0	-9.848034968E0	3.963103606E0	1.121399019E1
1.005068471E1	-8.415722072E-1	-8.518046007E0	-2.330851456E-1	8.562691180E0
1.006067671E1	7.678395487E-1	-7.794517390E0	-1.493001001E0	7.973276046E0
1.007066771E1	2.125288935E-1	-7.797038709E0	-8.314191020E-1	7.844121294E0
1.008065971E1	-6.815849318E-1	-7.174863389E0	3.901050322E-1	7.217714638E0
1.009065171E1	-1.639240303E0	-6.020224823E0	1.643517834E0	6.452237330E0
1.010064371E1	-2.956143781E0	-4.359013900E0	2.908331391E0	6.016492309E0
1.011063471E1	-3.868297728E0	-2.741716735E0	3.549884384E0	5.923041204E0
1.012062671E1	-4.473145702E0	-9.250160676E-1	3.679898686E0	5.865691906E0
1.013061871E1	-4.540543633E0	3.428731245E-1	3.793306018E0	5.926488759E0
1.014060971E1	-4.530254288E0	1.326329189E0	4.911770491E0	6.812330173E0
1.015060171E1	-3.706741791E0	2.987689801E0	5.831465592E0	7.528095112E0
1.016059371E1	-3.124934770E0	4.870213160E0	6.215316589E0	8.492017066E0
1.017058471E1	-2.836843917E0	6.456163402E0	6.179177288E0	9.376137863E0
1.018057671E1	-2.877504870E0	7.554989709E0	5.636308338E0	9.855246088E0
1.019056871E1	-3.367857929E0	8.269583196E0	5.337829614E0	1.040292739E1
1.020055971E1	-4.031107893E0	8.316521720E0	5.322418107E0	1.066501284E1
1.021055171E1	-4.666125453E0	8.952019336E0	5.321032902E0	1.141160673E1
1.022054371E1	-4.504337381E0	9.011666198E0	5.092076987E0	1.128842022E1
1.023053471E1	-3.954796466E0	9.239928634E0	4.753747734E0	1.111821990E1
1.024052671E1	-3.989955482E0	9.527654328E0	4.543399121E0	1.128443252E1
1.025051871E1	-4.371414090E0	9.642166200E0	4.403550095E0	1.146611894E1
1.026051071E1	-4.139288984E0	9.373619372E0	4.565748056E0	1.121804389E1
1.027050171E1	-3.736099491E0	8.805689256E0	4.774945060E0	1.069105715E1
1.028049371E1	-3.786448111E0	8.296280413E0	4.492112315E0	1.016585122E1
1.029048571E1	-4.055645149E0	7.849581204E0	3.774257836E0	9.607767944E0
1.030047671E1	-4.167333107E0	7.235300794E0	2.803880239E0	8.807836693E0
1.031046871E1	-3.631059524E0	6.101017556E0	1.295919867E0	7.217091990E0
1.032046071E1	-1.389064989E0	4.500284969E0	-1.013814516E0	4.817663979E0
1.033045171E1	8.976344338E-1	2.226965291E0	-3.739803702E0	4.444238260E0
1.034044371E1	3.051558938E0	-9.527225143E-1	-6.717919858E0	7.439767426E0
1.035043571E1	5.426323714E0	-5.695281601E0	-7.599187642E0	1.093749854E1
1.036042671E1	1.044126657E1	-1.468686320E1	-1.064750956E1	2.093068222E1
1.037041871E1	1.313359363E1	-2.763975798E1	-1.821775816E1	3.561368017E1
1.038041071E1	5.130773275E0	-2.790218570E1	-1.252272799E1	3.101089353E1
1.039040271E1	-4.461670395E-1	-1.286375047E1	-7.628954648E0	1.496248944E1
1.040039371E1	-5.619702246E0	-8.232616514E-1	-3.858205726E0	6.866189955E0
1.041038571E1	-1.089432404E1	6.066701417E0	-1.293312301E0	1.253649948E1
1.042037771E1	-1.223182785E1	8.589984301E0	3.578676074E0	1.536920184E1
1.043036871E1	-1.450762148E1	5.682556306E0	5.428369070E0	1.649938538E1
1.044036071E1	-1.636091987E1	-3.442138910E-2	3.664062379E0	1.676622310E1
1.045035271E1	-1.289250942E1	-8.257347313E0	-1.248170042E-1	1.531065521E1
1.046034371E1	-6.148664178E0	-1.572222967E1	-6.045688278E0	1.793167376E1
1.047033571E1	1.504964697E0	-1.517116117E1	-3.989184526E0	1.575889093E1
1.048032771E1	2.298684314E0	-6.303975581E0	1.209738866E1	1.383368607E1
1.049031871E1	-8.272783231E-1	2.763578305E0	1.223950992E1	1.257487008E1
1.050031071E1	2.278966919E-1	5.936630105E0	5.545393490E0	8.126924564E0
1.051030271E1	2.470210924E0	6.696590384E0	9.138723271E0	1.159579785E1
1.052029371E1	3.783438549E0	7.170806006E0	1.727521039E1	1.908318003E1
1.053028571E1	1.142840565E0	6.528059596E0	1.789008722E1	1.907817778E1
1.054027771E1	-4.392188370E0	5.019718278E0	9.855793054E0	1.190065322E1
1.055026971E1	-7.300442285E0	2.633908111E0	-2.126147014E-1	7.763963840E0
1.056026071E1	-4.179937365E0	-2.051542389E0	-3.587009525E-1	4.670050206E0
1.057025271E1	-1.304143537E0	-6.534047145E0	6.164241160E0	9.077027682E0
1.058024471E1	7.773213936E-1	-1.018858616E1	6.601575469E0	1.216520921E1
1.059023571E1	3.864169009E0	-1.141285980E1	3.656137648E0	1.259176372E1
1.060022771E1	5.217023215E0	-9.335098500E0	2.269788252E0	1.093221542E1
1.061021971E1	4.555536479E0	-4.574454560E0	1.778326706E0	6.696341763E0
1.062021071E1	2.354978676E0	5.830475074E-1	1.784367903E0	3.011617136E0
1.063020271E1	-1.651232139E-1	3.662704656E0	1.503810310E0	3.962841975E0
1.064019471E1	-2.123292549E0	5.147268856E0	2.488517240E-1	5.573569332E0
1.065018571E1	-3.154988582E0	5.537030218E0	-1.044442597E0	6.457826021E0
1.066017771E1	-3.228255948E0	5.630925391E0	-1.217892063E0	6.603954747E0
1.067016971E1	-2.541544324E0	5.064960524E0	-1.021852391E0	5.758251034E0
1.068016071E1	-1.459983090E0	4.655292901E0	-8.262875855E-1	4.948338488E0
1.069015271E1	-9.947069845E-1	3.793234389E0	7.299314101E-2	3.922167400E0
1.070014471E1	-2.197376333E-1	2.905677339E0	1.718903646E0	3.383175309E0
1.071013671E1	2.476193503E-1	1.409446190E0	3.334738423E0	3.628819953E0
1.072012771E1	4.705182807E-1	-2.257183117E-1	4.106653919E0	4.139679048E0
1.073011971E1	1.728794212E0	5.950360537E-2	4.123029047E0	4.471201027E0
1.074011171E1	2.158537519E0	6.563838708E-1	2.981805748E0	3.739156259E0
1.075010271E1	1.971237022E0	1.656686348E0	8.885866716E-1	2.723962431E0
1.076009471E1	4.825753856E-1	1.841944851E0	-2.048018273E0	2.796429631E0
1.077008671E1	-6.762436464E-1	1.613522787E0	-4.167826905E0	4.520126366E0
1.078007771E1	-9.785848953E-1	1.328984994E0	-4.326661840E0	4.630748556E0
1.079006971E1	-2.630779266E-1	1.418947915E0	-2.997373960E0	3.326691125E0
1.080006171E1	6.638718152E-1	9.184373653E-1	-1.116123540E0	1.590592575E0
1.081005271E1	2.686845294E0	-3.150392085E-1	4.467804855E-1	2.741897178E0
1.082004471E1	5.593825393E0	-1.813992822E0	7.467882568E-1	5.927828032E0
1.083003671E1	8.240036046E0	-2.952657963E0	-1.925409177E-1	8.755195891E0
1.084002771E1	9.331527021E0	-4.086719007E0	-2.023044814E0	1.038611473E1
1.085001971E1	8.776849619E0	-5.324056497E0	-3.667187423E0	1.090077660E1
1.086001171E1	7.423175926E0	-6.098634231E0	-3.967875518E0	1.039427325E1
1.087000371E1	6.094205550E0	-6.154856964E0	-3.413123857E0	9.309727171E0
1.087999471E1	5.519105578E0	-5.674643853E0	-3.357642551E0	8.598597138E0
1.088998671E1	6.032295231E0	-5.374016862E0	-4.191004098E0	9.101272347E0
1.089997871E1	6.770037260E0	-5.519371042E0	-4.978015351E0	1.005373055E1
1.090996971E1	6.884869559E0	-6.006679164E0	-4.726300904E0	1.028686267E1
1.091996171E1	6.937397436E0	-7.735242995E0	-3.263667855E0	1.089095934E1
1.092995371E1	6.551407528E0	-9.526990669E0	-1.218860874E0	1.162626826E1
1.093994471E1	5.275745047E0	-8.738240454E0	-4.713154024E-1	1.021824203E1
1.094993671E1	4.486778778E0	-7.230107297E0	-1.617090173E0	8.661444219E0
1.095992871E1	4.835461111E0	-6.395754063E0	-2.354535164E0	8.356505850E0
1.096991971E1	4.871779921E0	-5.344640450E0	-1.869167148E0	7.469485054E0
1.097991171E1	4.519878404E0	-4.531321989E0	-2.048786597E0	6.720097192E0
1.098990371E1	3.379968390E0	-4.963744637E0	-2.323567725E0	6.439092647E0
1.099989471E1	1.208081824E0	-6.000576425E0	-1.562565472E0	6.317277101E0
1.100988671E1	-1.283600953E0	-6.584634331E0	1.696215280E0	6.919695583E0
1.101987871E1	-3.323509722E0	-7.568712539E0	6.872458259E0	1.074996786E1
1.102986971E1	-5.011450900E0	-9.052131270E0	8.522329677E0	1.340469409E1
1.103986171E1	-5.875319125E0	-9.755938398E0	5.085726911E0	1.247246275E1
1.104985371E1	-4.463146963E0	-8.924639164E0	-2.983274277E-1	9.982878557E0
1.105984571E1	-2.196608009E0	-7.686484233E0	-2.908001608E0	8.506679726E0
1.106983671E1	-1.563935767E0	-6.968217525E0	-2.205649120E0	7.474412258E0
1.107982871E1	-2.265674736E0	-6.118357474E0	-5.124264447E-1	6.544475613E0
1.108982071E1	-3.381267641E0	-4.790441936E0	8.502415815E-1	5.924881058E0
1.109981171E1	-3.722686563E0	-3.304484929E0	2.447467594E0	5.546901253E0
1.110980371E1	-3.083791714E0	-1.579221851E0	3.570016055E0	4.974809305E0
1.111979571E1	-2.895942602E0	2.385090959E-1	3.919380466E0	4.879027914E0
1.112978671E1	-3.160796328E0	2.291533754E0	4.056219345E0	5.629802461E0
1.113977871E1	-2.733125421E0	3.822763998E0	4.085822336E0	6.227153709E0
1.114977071E1	-2.035554932E0	4.484914978E0	4.150449564E0	6.440821207E0
1.115976171E1	-1.923902057E0	4.616738116E0	4.754423087E0	6.900739732E0
1.116975371E1	-1.022459916E0	4.528251616E0	5.246710113E0	7.005601615E0
1.117974571E1	-1.029201318E0	5.822954385E0	5.150254444E0	7.841630823E0
1.118973671E1	-1.326762760E0	6.761626625E0	5.066138738E0	8.552523356E0
1.119972871E1	-1.595033891E0	7.389165012E0	5.003356014E0	9.065178657E0
1.120972071E1	-2.185964469E0	7.703859819E0	5.320708966E0	9.614459978E0
1.121971171E1	-2.578129182E0	8.127573039E0	5.624934919E0	1.021489532E1
1.122970371E1	-2.890005047E0	8.722191017E0	5.735892853E0	1.083186097E1
1.123969571E1	-3.318345754E0	9.184325121E0	5.578912654E0	1.124666674E1
1.124968671E1	-3.526076276E0	9.428000817E0	5.293664424E0	1.137291943E1
1.125967871E1	-3.633393733E0	9.802796815E0	5.138546564E0	1.164907877E1
1.126967071E1	-3.773462614E0	9.816434276E0	5.110323808E0	1.169259644E1
1.127966271E1	-3.688008189E0	9.398035591E0	4.920700943E0	1.123110748E1
1.128965371E1	-3.418616439E0	8.551110842E0	4.573643844E0	1.028234667E1
1.129964571E1	-3.160296976E0	7.633379821E0	3.831992366E0	9.107147191E0
1.130963771E1	-2.808355697E0	6.657183659E0	2.481306016E0	7.639491838E0
1.131962871E1	-1.305773302E0	5.192662545E0	3.722004193E-1	5.367245231E0
1.132962071E1	8.655677184E-1	3.321978044E0	-3.318402764E0	4.774572494E0
1.133961271E1	2.356979739E0	2.491469353E-1	-8.379783915E0	8.708513430E0
1.134960371E1	3.271349050E0	-4.075673617E0	-1.117529796E1	1.233694146E1
1.135959571E1	6.201325371E0	-1.083346856E1	-9.704341983E0	1.581122167E1
1.136958771E1	1.047324265E1	-2.216424281E1	-1.327529155E1	2.787787361E1
1.137957871E1	6.904206886E0	-2.988393105E1	-1.543012383E1	3.433374621E1
1.138957071E1	1.604823007E0	-2.151060596E1	-1.052785916E1	2.400244663E1
1.139956271E1	-2.209127482E0	-6.655972701E0	-5.957497063E0	9.201846993E0
1.140955371E1	-6.380147844E0	3.748889691E0	-1.228351489E0	7.501287077E0
1.141954571E1	-9.750906869E0	1.078885664E1	8.008007419E-1	1.456437071E1
1.142953771E1	-9.966228247E0	1.235185949E1	3.580360072E0	1.627000665E1
1.143952871E1	-8.310794372E0	7.427643784E0	6.756797410E0	1.303432033E1
1.144952071E1	-7.092379056E0	2.422552900E0	7.684117280E0	1.073388381E1
1.145951271E1	-5.654942830E0	-2.279114853E0	9.243175592E0	1.107289655E1
1.146950371E1	-6.457410613E0	-1.106638772E1	1.831470149E0	1.294285022E1
1.147949571E1	-4.242611916E0	-2.202026799E1	-1.058017186E1	2.479580599E1
1.148948771E1	2.899395676E0	-2.313281538E1	-1.778485897E0	2.338154517E1
1.149947971E1	-1.763610434E0	-7.671439347E0	1.186650317E1	1.423991576E1
1.150947071E1	-4.394083453E0	4.383739436E0	8.189269935E0	1.027566460E1
1.151946271E1	-3.312641210E0	7.883469912E0	6.495860149E0	1.073866326E1
1.152945471E1	-1.041049092E0	9.193843219E0	1.122279372E1	1.454515848E1
1.153944571E1	9.023192230E-1	9.774329646E0	1.681149461E1	1.946735861E1
1.154943771E1	-1.398498740E0	8.192844338E0	1.592409076E1	1.796260459E1
1.155942971E1	-5.221544282E0	5.609556742E0	9.328701646E0	1.207295846E1
1.156942071E1	-6.218643655E0	2.668984973E0	2.470417038E0	7.204024572E0
1.157941271E1	-4.210417731E0	-3.011802549E0	1.754266730E0	5.465896434E0
1.158940471E1	-1.860323966E0	-8.042972599E0	4.594970101E0	9.447960823E0
1.159939571E1	1.884680944E-1	-1.253272089E1	3.188154281E0	1.293324943E1
1.160938771E1	3.786075643E0	-1.190654958E1	1.599162903E0	1.259593639E1
1.161937971E1	5.198030874E0	-7.335884013E0	1.296110340E0	9.083755899E0
1.162937071E1	3.872317396E0	-1.936922929E0	1.472349951E0	4.573218433E0
1.163936271E1	1.340967547E0	1.897351313E0	1.264710792E0	2.645303263E0
1.164935471E1	-1.078350162E0	3.428156464E0	9.726967491E-2	3.595074019E0
1.165934571E1	-1.942071695E0	4.269825734E0	-1.006371156E0	4.797482379E0
1.166933771E1	-2.018645662E0	4.639199025E0	-1.365694399E0	5.240440735E0
1.167932971E1	-1.680747641E0	4.544019803E0	-8.622900617E-1	4.921033708E0
1.168932071E1	-6.766755364E-1	4.263818305E0	-1.748633047E-1	4.320719095E0
1.169931271E1	3.456757680E-1	4.104738371E0	6.440965319E-1	4.169319990E0
1.170930471E1	7.050661804E-1	3.637552273E0	1.491376791E0	3.994134398E0
1.171929571E1	7.907366605E-1	2.222389260E0	1.975889359E0	3.077079337E0
1.172928771E1	1.322053851E0	1.025959475E0	1.954195604E0	2.572799971E0
1.173927971E1	1.719615399E0	4.255977774E-1	1.705766122E0	2.459237413E0
1.174927171E1	1.993262899E0	5.655350965E-1	1.505855082E0	2.561352466E0
1.175926271E1	2.105186208E0	1.436479622E0	7.610489579E-1	2.659789125E0
1.176925471E1	1.468645886E0	1.955630511E0	-8.940486288E-1	2.603984329E0
1.177924671E1	1.195181404E0	2.117196681E0	-2.741145462E0	3.663994926E0
1.178923771E1	4.800871029E-1	1.735309764E0	-3.591686713E0	4.017710424E0
1.179922971E1	8.851398110E-2	1.114171155E0	-3.334195801E0	3.516542866E0
1.180922171E1	7.822691613E-1	6.934458625E-1	-2.507805889E0	2.716965694E0
1.181921271E1	1.924922689E0	1.913583183E-1	-1.038989410E0	2.195778759E0
1.182920471E1	3.614988160E0	-3.599861705E-1	3.980972989E-1	3.654615014E0
1.183919671E1	6.102892758E0	-7.826065457E-1	5.368755537E-1	6.176245493E0
1.184918771E1	8.133731911E0	-1.620155869E0	-3.531835198E-1	8.301038395E0
1.185917971E1	8.231151202E0	-3.305033398E0	-1.534440511E0	9.001644491E0
1.186917171E1	7.130426888E0	-4.937228099E0	-2.033999573E0	8.908218855E0
1.187916271E1	6.136565119E0	-5.908969266E0	-1.783899541E0	8.703771988E0
1.188915471E1	5.424746135E0	-6.602670652E0	-2.185417754E0	8.820384410E0
1.189914671E1	5.436357536E0	-6.735829294E0	-3.398577738E0	9.299231699E0
1.190913771E1	6.337650865E0	-6.161870114E0	-4.494961079E0	9.916609143E0
1.191912971E1	7.345540105E0	-5.493297722E0	-4.563081726E0	1.024475447E1
1.192912171E1	8.040934260E0	-5.756404300E0	-3.626953610E0	1.053316698E1
1.193911271E1	8.622921082E0	-7.768842850E0	-1.792690976E0	1.174408056E1
1.194910471E1	8.269383806E0	-8.843357604E0	-3.730868572E-1	1.211308697E1
1.195909671E1	6.803110281E0	-7.642629531E0	-8.227576214E-1	1.026494159E1
1.196908771E1	5.968979825E0	-6.946644223E0	-2.568705225E0	9.512246456E0
1.197907971E1	5.832747302E0	-6.661458558E0	-3.327594295E0	9.458797757E0
1.198907171E1	5.376124198E0	-5.540597604E0	-3.071611379E0	8.308774258E0
1.199906271E1	4.253109714E0	-4.806728185E0	-3.576714333E0	7.347548129E0
1.200905471E1	1.945638789E0	-5.420690507E0	-3.814470892E0	6.907936309E0
1.201904671E1	-3.897128302E-1	-6.240581823E0	-1.050993744E0	6.340451516E0
1.202903771E1	-1.705207713E0	-6.536126415E0	5.597393364E0	8.772656058E0
1.203902971E1	-3.271218072E0	-7.599571220E0	9.364605889E0	1.249600712E1
1.204902171E1	-5.620664113E0	-9.618014860E0	7.968331722E0	1.369643696E1
1.205901371E1	-6.008977119E0	-1.025618933E1	2.783798561E0	1.220847083E1
1.206900471E1	-3.339598628E0	-8.631946260E0	-2.280345107E0	9.532228965E0
1.207899671E1	-1.093907045E0	-6.996778250E0	-3.482092935E0	7.891546725E0
1.208898871E1	-7.983473964E-1	-6.404720183E0	-1.430116536E0	6.610826915E0
1.209897971E1	-1.589655330E0	-5.774013775E0	3.191632497E-1	5.997341438E0
1.210897171E1	-2.150237542E0	-4.800495054E0	1.308073597E0	5.420270361E0
1.211896371E1	-2.600409413E0	-3.759826323E0	2.749714849E0	5.334731000E0
1.212895471E1	-2.419967700E0	-2.287254762E0	4.054059676E0	5.246253699E0
1.213894671E1	-2.059490363E0	-6.217736167E-1	4.545216435E0	5.028627589E0
1.214893871E1	-2.665162941E0	8.726688695E-1	4.430312801E0	5.243311546E0
1.215892971E1	-2.753114712E0	2.128480053E0	4.399695318E0	5.609579917E0
1.216892171E1	-2.495967324E0	3.512856891E0	4.546775888E0	6.264438314E0
1.217891371E1	-1.850757629E0	3.879952106E0	5.218900756E0	6.761379833E0
1.218890471E1	-1.270391508E0	2.625866436E0	5.862014955E0	6.547693369E0
1.219889671E1	-1.236211170E0	3.752374046E0	6.211596590E0	7.361552910E0
1.220888871E1	-1.738350316E0	4.988207633E0	6.288511450E0	8.212761622E0
1.221887971E1	-2.257380168E0	5.865549597E0	6.538496291E0	9.069309293E0
1.222887171E1	-2.750406574E0	6.502648766E0	6.668095148E0	9.711471063E0
1.223886371E1	-3.278996039E0	7.513395540E0	7.001898072E0	1.078097881E1
1.224885471E1	-3.773897647E0	8.657415562E0	7.068708943E0	1.179660094E1
1.225884671E1	-4.038216353E0	9.669819437E0	6.820004641E0	1.250300214E1
1.226883871E1	-4.001720079E0	1.070913220E1	6.439813417E0	1.312137466E1
1.227882971E1	-3.830012791E0	1.165749094E1	5.985769520E0	1.365267482E1
1.228882171E1	-3.693445807E0	1.251766547E1	5.334506641E0	1.409930679E1
1.229881371E1	-3.715546528E0	1.279786405E1	4.962668749E0	1.422036186E1
1.230880471E1	-3.632246217E0	1.249089926E1	4.571598780E0	1.378823021E1
1.231879671E1	-3.195068321E0	1.185353872E1	3.694277866E0	1.282039511E1
1.232878871E1	-1.756820063E0	1.052386317E1	1.920106922E0	1.084089126E1
1.233877971E1	8.318564737E-1	8.161977471E0	-1.677017410E0	8.373902843E0
1.234877171E1	3.030689056E0	4.494916640E0	-6.067408930E0	8.136510485E0
1.235876371E1	2.156786716E0	-2.539276189E-1	-9.895956409E0	1.013144419E1
1.236875571E1	3.367191347E0	-9.000685712E0	-1.069711500E1	1.437979799E1
1.237874671E1	9.589238958E0	-2.731361199E1	-2.045516951E1	3.544574535E1
1.238873871E1	9.922924937E0	-4.148370762E1	-2.052190729E1	4.733403761E1
1.239873071E1	5.621283917E0	-2.996292459E1	-1.094916976E1	3.239228305E1
1.240872171E1	2.492406918E-1	-8.715355037E0	-6.538786313E0	1.089840634E1
1.241871371E1	-6.116020342E0	3.571731336E0	-1.259383540E0	7.193678924E0
1.242870571E1	-9.678852215E0	1.069114733E1	2.294952914E0	1.460300039E1
1.243869671E1	-9.292405640E0	1.096219151E1	8.525331053E0	1.670927032E1
1.244868871E1	-8.757609356E0	4.820598950E0	1.010944293E1	1.421740948E1
1.245868071E1	-7.058545312E0	-1.234181748E0	8.682261550E0	1.125735014E1
1.246867171E1	-3.557372328E0	-6.971000215E0	6.319495261E0	1.005911339E1
1.247866371E1	-1.863188517E0	-1.487976518E1	-5.284296600E0	1.589976962E1
1.248865571E1	1.883958704E0	-1.913135988E1	-1.126509365E0	1.925687552E1
1.249864671E1	-5.113167894E0	-9.557957523E0	4.980707994E0	1.192922839E1
1.250863871E1	-1.200077629E1	1.715992903E0	-9.601876545E-1	1.216080686E1
1.251863071E1	-7.662608297E0	5.750639530E0	7.137886181E0	1.194716871E1
1.252862171E1	-1.657238033E0	8.919808779E0	1.186052731E1	1.493256625E1
1.253861371E1	1.671878292E0	1.014625349E1	1.837856244E1	2.105975295E1
1.254860571E1	-3.009357244E-1	8.066091321E0	2.004351851E1	2.160775383E1
1.255859671E1	-5.341811568E0	4.834497197E0	1.268043676E1	1.458426516E1
1.256858871E1	-6.933574526E0	1.392156558E0	4.200900218E0	8.225577076E0
1.257858071E1	-3.310309048E0	-3.453442163E0	1.756514984E0	5.096052752E0
1.258857171E1	3.843078102E-1	-8.844765614E0	3.845437161E0	9.652199657E0
1.259856371E1	2.873629335E0	-1.236465320E1	3.139817103E0	1.307672917E1
1.260855571E1	4.702793342E0	-1.251155630E1	1.518743514E0	1.345220756E1
1.261854671E1	5.210480765E0	-7.849344392E0	1.624272016E0	9.560312587E0
1.262853871E1	3.883097323E0	-2.229114727E0	1.884377218E0	4.857805553E0
1.263853071E1	1.474812799E0	1.694442989E0	1.441120265E0	2.668901919E0
1.264852271E1	-1.197100753E0	3.109666228E0	3.035372968E-1	3.345924260E0
1.265851371E1	-2.605839137E0	3.663765340E0	-5.078854971E-1	4.524546580E0
1.266850571E1	-2.862267903E0	3.812198664E0	-8.533110774E-1	4.842889220E0
1.267849771E1	-2.263595466E0	3.991883016E0	-5.936819116E-1	4.627251091E0
1.268848871E1	-1.151001305E0	4.219694046E0	-2.305476002E-1	4.379928543E0
1.269848071E1	5.020565540E-2	3.900230834E0	-9.873951875E-2	3.901803514E0
1.270847271E1	9.848031168E-1	3.568593720E0	2.123159087E-1	3.708069088E0
1.271846371E1	1.342285510E0	2.980410018E0	1.090684644E0	3.445891359E0
1.272845571E1	9.994518538E-1	1.580183718E0	1.951094826E0	2.702342615E0
1.273844771E1	9.864018917E-1	9.608273399E-1	2.273979828E0	2.658413461E0
1.274843871E1	9.903228883E-1	7.927619898E-1	2.220602936E0	2.557398755E0
1.275843071E1	1.355770504E0	1.535726168E0	1.617333418E0	2.610045192E0
1.276842271E1	1.164282086E0	2.590803022E0	4.690707294E-1	2.878860960E0
1.277841371E1	5.449202992E-1	3.093498092E0	-9.808091030E-1	3.290692188E0
1.278840571E1	-6.374780685E-3	2.475362613E0	-2.344455734E0	3.409389006E0
1.279839771E1	-3.340265796E-1	1.241558595E0	-3.267250444E0	3.511120472E0
1.280838871E1	-1.771434447E-1	2.581019461E-1	-3.551129841E0	3.564901059E0
1.281838071E1	6.615890622E-1	1.637869424E-1	-3.045170270E0	3.120510892E0
1.282837271E1	1.992916451E0	2.832940900E-1	-1.940763965E0	2.796164568E0
1.283836371E1	4.272204382E0	-7.103782296E-2	-1.056161075E0	4.401392151E0
1.284835571E1	6.974789211E0	-9.710710770E-1	-4.499362278E-1	7.056423044E0
1.285834771E1	8.952440336E0	-2.690390460E0	-1.544561018E-1	9.349237695E0
1.286833871E1	9.580148876E0	-4.508556440E0	-3.649106956E-1	1.059431421E1
1.287833033E1	9.246451787E0	-5.519873902E0	-4.958577745E-1	1.078015554E1
1.288832233E1	8.363466675E0	-5.825131888E0	-1.116507702E0	1.025311298E1
1.289831433E1	7.524794102E0	-5.848024322E0	-2.806388109E0	9.934673068E0
1.290830533E1	7.089303421E0	-5.466199971E0	-3.995252182E0	9.803040605E0
1.291829733E1	7.849911572E0	-5.272539019E0	-3.657553259E0	1.013895829E1
1.292828933E1	9.167637752E0	-6.469442428E0	-2.199964603E0	1.143412050E1
1.293828033E1	9.183405939E0	-7.530037301E0	-9.118288422E-1	1.191082861E1
1.294827233E1	7.840258988E0	-7.195574811E0	-7.474408060E-1	1.066792509E1
1.295826433E1	5.749273621E0	-7.363858847E0	-1.290749466E0	9.431150432E0
1.296825533E1	3.939142885E0	-8.559783432E0	-1.926763392E0	9.617648166E0
1.297824733E1	2.910167709E0	-8.995026777E0	-2.684802276E0	9.827906495E0
1.298823933E1	2.480337717E0	-7.612326336E0	-3.974576427E0	8.938503522E0
1.299823033E1	1.854367553E0	-5.538516580E0	-5.424331568E0	7.971023641E0
1.300822233E1	5.123815674E-1	-4.454286677E0	-5.450770338E0	7.057910594E0
1.301821433E1	-6.158217359E-1	-4.525287078E0	-1.842064719E0	4.924496114E0
1.302820533E1	-1.582020036E0	-5.032861649E0	5.082203379E0	7.325385652E0
1.303819733E1	-3.076298215E0	-6.446938834E0	9.234097205E0	1.167455276E1
1.304818933E1	-4.897155960E0	-7.923909840E0	7.767097456E0	1.212840824E1
1.305818033E1	-6.022394725E0	-8.293480182E0	3.165006616E0	1.072699019E1
1.306817233E1	-5.315462260E0	-7.507686319E0	-1.748847238E0	9.363650974E0
1.307816433E1	-3.727407605E0	-6.270266967E0	-4.154011688E0	8.394380764E0
1.308815533E1	-2.638521565E0	-5.640055819E0	-3.653019912E0	7.219181405E0
1.309814733E1	-2.495321791E0	-5.605586482E0	-1.534402943E0	6.324841741E0
1.310813933E1	-2.408685059E0	-5.304029199E0	4.983127280E-1	5.846606283E0
1.311813033E1	-2.387423706E0	-4.591778106E0	2.052810066E0	5.567606963E0
1.312812233E1	-2.390404032E0	-3.646827126E0	3.013081043E0	5.300192156E0
1.313811433E1	-1.885981256E0	-2.056423645E0	3.457621460E0	4.443078850E0
1.314810533E1	-2.006551427E0	3.119249815E-1	3.257351401E0	3.838474172E0
1.315809733E1	-2.117198727E0	1.768769286E0	3.263367601E0	4.273247399E0
1.316808933E1	-1.805908023E0	2.689677100E0	3.339038465E0	4.652402021E0
1.317808133E1	-1.626305093E0	3.496312194E0	3.598887559E0	5.274567174E0
1.318807233E1	-1.252994287E0	4.097645699E0	4.567265993E0	6.262636315E0
1.319806433E1	-7.624734128E-1	3.875923374E0	5.554639108E0	6.816022544E0
1.320805633E1	-4.885540174E-1	4.174798540E0	6.159081577E0	7.456669079E0
1.321804733E1	-7.379243895E-1	5.082498078E0	6.629511126E0	8.386103797E0
1.322803933E1	-8.787338208E-1	6.406690695E0	6.761024362E0	9.355709979E0
1.323803133E1	-1.137809913E0	7.867341537E0	6.513940324E0	1.027721231E1
1.324802233E1	-1.740901164E0	9.076170927E0	6.018283548E0	1.102847915E1
1.325801433E1	-2.369617765E0	9.829702778E0	5.722247790E0	1.161818681E1
1.326800633E1	-2.951679724E0	1.020074369E1	5.499844850E0	1.195892464E1
1.327799733E1	-3.456803142E0	1.024827688E1	5.215977733E0	1.200762635E1
1.328798933E1	-3.825595512E0	1.032286747E1	4.841066836E0	1.202633369E1
1.329798133E1	-3.963173772E0	1.067156852E1	4.276894433E0	1.216063102E1
1.330797233E1	-3.870612348E0	1.079569672E1	3.866684774E0	1.210289051E1
1.331796433E1	-3.774695500E0	1.028071489E1	3.873586827E0	1.161663031E1
1.332795633E1	-4.047222235E0	9.265330108E0	4.134519995E0	1.092339716E1
1.333794733E1	-4.304942942E0	8.248556024E0	3.616211105E0	9.982394150E0
1.334793933E1	-2.967023695E0	6.881622600E0	2.435708258E0	7.879887939E0
1.335793133E1	-1.035020540E0	4.350789791E0	-4.011540771E-2	4.472387345E0
1.336792233E1	5.085789768E-1	6.934762681E-1	-4.606575947E0	4.686160888E0
1.337791433E1	2.095697054E0	-4.340575874E0	-8.888941913E0	1.011166818E1
1.338790633E1	4.149874491E0	-1.242408897E1	-9.822435858E0	1.637252856E1
1.339789733E1	9.713739628E0	-2.552009787E1	-1.874588804E1	3.312160098E1
1.340788933E1	9.627290883E0	-3.332454032E1	-2.111311692E1	4.060755378E1
1.341788133E1	2.146427935E0	-2.082485387E1	-1.276647503E1	2.452069689E1
1.342787333E1	-3.411629893E0	-4.058202721E0	-6.856374323E0	8.667069672E0
1.343786433E1	-7.886528006E0	5.161964663E0	-1.606252652E0	9.561550645E0
1.344785633E1	-1.056882007E1	1.075573451E1	-2.981349081E-1	1.508226332E1
1.345784833E1	-9.810364866E0	1.145856398E1	6.397274923E0	1.638496487E1
1.346783933E1	-9.097575245E0	7.020540749E0	1.186226043E1	1.651566197E1
1.347783133E1	-9.284781455E0	2.016552066E0	1.090036422E1	1.445999962E1
1.348782333E1	-7.812664223E0	-3.090011982E0	5.651213475E0	1.012532024E1
1.349781433E1	-5.212690428E0	-1.213930618E1	-9.008661314E0	1.599033692E1
1.350780633E1	4.527641167E0	-2.212489339E1	-8.987552866E0	2.430610106E1
1.351779833E1	2.604158063E0	-1.845245721E1	1.262352581E1	2.250840332E1
1.352778933E1	-3.950189445E0	-6.913968228E0	4.335037392E0	9.066394128E0
1.353778133E1	1.161767783E0	-2.822217107E-1	8.019005447E0	8.107638487E0
1.354777333E1	3.593902808E0	4.513192112E0	1.501789513E1	1.608795246E1
1.355776433E1	1.391227874E0	7.450777123E0	1.484401063E1	1.666716071E1
1.356775633E1	-3.637774467E0	6.802853588E0	9.988287452E0	1.262054303E1
1.357774833E1	-7.633914841E0	4.928145034E0	5.070824112E0	1.040560072E1
1.358773933E1	-6.741373624E0	3.673271744E0	4.074811737E0	8.691555346E0
1.359773133E1	-4.594563427E0	1.538083765E0	4.882250530E0	6.878378079E0
1.360772333E1	-3.553391251E0	-1.685716020E0	3.166037773E0	5.048962573E0
1.361771433E1	-2.041567039E0	-5.967729691E0	1.063423463E0	6.396300735E0
1.362770633E1	1.230365910E-1	-8.854567886E0	1.767475590E0	9.030087508E0
1.363769833E1	3.210983273E0	-8.206656046E0	3.647907984E0	9.537654308E0
1.364768933E1	4.465361304E0	-5.810902689E0	4.385918108E0	8.540627570E0
1.365768133E1	4.282974368E0	-3.051305754E0	3.655384526E0	6.404386956E0
1.366767333E1	2.817448995E0	-6.300561976E-1	2.013362410E0	3.519746844E0
1.367766433E1	1.250836811E0	8.585981297E-1	7.041980150E-1	1.672626175E0
1.368765633E1	1.581940806E-1	2.043197243E0	1.148173884E-2	2.049344327E0
1.369764833E1	-5.671202767E-1	2.835161673E0	-4.906714404E-1	2.932665269E0
1.370763933E1	-1.135425053E0	3.237938352E0	-5.251351487E-1	3.471196011E0
1.371763133E1	-1.111767365E0	3.537999333E0	9.588739313E-2	3.709805972E0
1.372762333E1	-4.662305175E-1	3.704737950E0	9.183297765E-1	3.845228700E0
1.373761533E1	2.008737847E-1	3.224038936E0	1.710877758E0	3.655390546E0
1.374760633E1	7.745458665E-1	2.511420053E0	2.230455494E0	3.447039845E0
1.375759833E1	1.105109871E0	1.602486752E0	1.908270403E0	2.725936087E0
1.376759033E1	1.819089547E0	1.227832257E0	8.271050262E-1	2.345370238E0
1.377758133E1	2.208748291E0	1.341764084E0	-2.259229825E-1	2.594212995E0
1.378757333E1	1.827594176E0	2.016515813E0	-1.152560538E0	2.955474969E0
1.379756533E1	1.060594726E0	3.046564831E0	-1.958142475E0	3.773690554E0
1.380755633E1	-2.259978086E-2	3.902643980E0	-2.189275308E0	4.474825937E0
1.381754833E1	-1.021717905E0	3.877808517E0	-1.781015110E0	4.387860662E0
1.382754033E1	-1.192705986E0	3.057306751E0	-1.784548582E0	3.735543572E0
1.383753133E1	-2.290871850E-1	1.448146572E0	-2.662666472E0	3.039638494E0
1.384752333E1	1.336264485E0	-2.209504920E-1	-3.828804172E0	4.061300688E0
1.385751533E1	3.208097380E0	-9.266515338E-1	-4.052818020E0	5.251276584E0
1.386750633E1	5.383377085E0	-1.274585423E0	-3.120120465E0	6.351414689E0
1.387749833E1	7.907456360E0	-2.257896477E0	-1.867316505E0	8.432842552E0
1.388749033E1	1.005379381E1	-3.622796824E0	-3.111161654E-1	1.069112810E1
1.389748133E1	1.101246820E1	-4.657392637E0	1.407197789E0	1.203935080E1
1.390747333E1	1.096165590E1	-5.101035506E0	1.451311523E0	1.217722335E1
1.391746533E1	1.069244074E1	-5.229897614E0	-7.573642619E-1	1.192701633E1
1.392745633E1	1.004195203E1	-5.205342232E0	-4.059177452E0	1.201720891E1
1.393744833E1	8.669462580E0	-4.942047958E0	-6.160512391E0	1.172754588E1
1.394744033E1	7.790457083E0	-5.275496541E0	-5.517715110E0	1.090721162E1
1.395743133E1	8.082420255E0	-7.397404908E0	-2.593132553E0	1.125928297E1
1.396742333E1	7.795323136E0	-9.047333629E0	6.109784871E-1	1.195803509E1
1.397741533E1	6.166650798E0	-8.804382988E0	1.803876700E0	1.089948224E1
1.398740633E1	4.226389693E0	-8.829911347E0	7.222931010E-1	9.815875486E0
1.399739833E1	2.617822421E0	-8.543938063E0	-1.493202292E0	9.059885481E0
1.400739033E1	1.512542542E0	-7.482766655E0	-5.098614174E0	9.180166025E0
1.401738133E1	5.282988578E-1	-6.123678440E0	-6.857501666E0	9.208901478E0
1.402737333E1	-4.809735408E-1	-5.714124838E0	-4.421391996E0	7.240943681E0
1.403736533E1	-1.127354872E0	-6.487472318E0	1.748798121E0	6.812967118E0
1.404735633E1	-2.069836865E0	-7.290173405E0	7.171431073E0	1.043361282E1
1.405734833E1	-3.409010925E0	-8.250003210E0	8.136960744E0	1.207866046E1
1.406734033E1	-4.634550489E0	-8.639052966E0	5.431754608E0	1.120786565E1
1.407733133E1	-4.599047072E0	-7.691639138E0	2.362093714E0	9.267795494E0
1.408732333E1	-2.830858122E0	-6.218125007E0	2.734555650E-1	6.837661461E0
1.409731533E1	-1.028350402E0	-5.505946419E0	-8.028357191E-1	5.658400455E0
1.410730633E1	-3.592865512E-1	-5.504684590E0	-6.716392565E-1	5.557134023E0
1.411729833E1	1.899687275E-1	-5.236854631E0	2.736523238E-1	5.247439389E0
1.412729033E1	6.561075899E-1	-4.661944694E0	1.663130711E0	4.993016048E0
1.413728233E1	4.562018848E-1	-3.805280238E0	3.038060056E0	4.890612104E0
1.414727333E1	-7.576987957E-1	-2.891983160E0	3.757469895E0	4.801692834E0
1.415726533E1	-2.693837102E0	-2.099652110E0	3.989635931E0	5.251903672E0
1.416725733E1	-3.409348894E0	-9.081298935E-1	3.798291354E0	5.184146699E0
1.417724833E1	-3.087015284E0	1.743750805E-1	3.445795759E0	4.629641287E0
1.418724033E1	-3.105843903E0	1.470881715E0	3.211310425E0	4.703432153E0
1.419723233E1	-2.867018181E0	2.637421119E0	3.404831043E0	5.173843623E0
1.420722333E1	-2.204001813E0	3.465289791E0	3.966290338E0	5.709405956E0
1.421721533E1	-2.572326698E0	3.704026929E0	4.824936123E0	6.604293203E0
1.422720733E1	-2.511598978E0	4.691496522E0	5.193992786E0	7.436116601E0
1.423719833E1	-2.759941629E0	5.859570819E0	5.533649358E0	8.518986042E0
1.424719033E1	-3.593021048E0	6.834138531E0	6.022453197E0	9.792098459E0
1.425718233E1	-3.953547501E0	8.125966809E0	6.270908407E0	1.099937119E1
1.426717333E1	-4.441088342E0	8.782464116E0	5.670387665E0	1.135817934E1
1.427716533E1	-4.683450168E0	8.942177303E0	5.295859469E0	1.139927050E1
1.428715733E1	-4.687583565E0	9.264611485E0	4.926174522E0	1.149233053E1
1.429714833E1	-4.754509041E0	9.520027805E0	4.500453076E0	1.155380299E1
1.430714033E1	-4.601323101E0	9.770397978E0	4.219775615E0	1.159479871E1
1.431713233E1	-4.053679900E0	9.864248128E0	4.031171335E0	1.140114267E1
1.432712333E1	-3.697658726E0	9.738796701E0	3.783118999E0	1.108281691E1
1.433711533E1	-3.756650408E0	9.574224477E0	3.423346544E0	1.083962629E1
1.434710733E1	-3.785724226E0	9.449965882E0	2.724110476E0	1.053823235E1
1.435709833E1	-3.169002603E0	8.981561224E0	1.376304464E0	9.623161305E0
1.436709033E1	-1.707051487E0	7.430196093E0	-1.313822872E0	7.736146929E0
1.437708233E1	-1.077537326E-1	4.152169231E0	-5.782899789E0	7.119975432E0
1.438707333E1	1.849355759E0	-9.111394554E-1	-1.137013771E1	1.155553215E1
1.439706533E1	5.968067075E0	-8.701428139E0	-1.276787134E1	1.656355079E1
1.440705733E1	1.323435519E1	-2.085526407E1	-1.426765526E1	2.852465921E1
1.441704833E1	1.335831031E1	-2.975738794E1	-1.551506516E1	3.612013066E1
1.442704033E1	8.172409489E0	-2.263048108E1	-1.155728369E1	2.669265362E1
1.443703233E1	2.993128589E0	-7.875353976E0	-7.730497980E0	1.143418637E1
1.444702333E1	-2.929080528E0	2.055319691E0	-3.081486157E0	4.722224974E0
1.445701533E1	-7.844563124E0	7.478615132E0	-4.020352525E-1	1.084566675E1
1.446700733E1	-9.538682177E0	6.141535252E0	4.986925339E0	1.239251134E1
1.447699833E1	-1.056589880E1	-7.708454561E-1	7.257076995E0	1.284124553E1
1.448699033E1	-9.658106879E0	-7.401090408E0	5.750299222E0	1.345812427E1
1.449698233E1	-2.930767742E0	-1.368252088E1	7.021492091E0	1.565573787E1
1.450697333E1	4.490562584E-1	-1.654874881E1	-2.185216756E0	1.669844037E1
1.451696533E1	7.860336719E-1	-1.191978300E1	2.382935675E0	1.218102861E1
1.452695733E1	-8.001956136E0	-1.477639343E0	5.484919832E0	9.813208730E0
1.453694833E1	-1.385705208E1	4.589430449E0	1.046809477E0	1.463477278E1
1.454694033E1	-9.173562736E0	6.292223262E0	4.436922786E0	1.197633544E1
1.455693233E1	-1.364857370E0	7.908545111E0	1.476623564E1	1.680623802E1
1.456692333E1	1.189617048E0	9.669256350E0	2.110276735E1	2.324298812E1
1.457691533E1	-2.727024728E0	8.270863736E0	1.654667071E1	1.869856044E1
1.458690733E1	-7.808016856E0	4.325306455E0	6.414379199E0	1.099170886E1
1.459689833E1	-6.944762589E0	-6.132559776E-1	1.467697906E-1	6.973331462E0
1.460689033E1	-3.525152708E0	-7.412657370E0	1.627835309E0	8.368036729E0
1.461688233E1	-4.008833144E-1	-1.276267901E1	3.267978423E0	1.318052981E1
1.462687333E1	4.031921825E0	-1.460791760E1	2.031136776E0	1.528964247E1
1.463686533E1	6.428881463E0	-1.074620004E1	1.712230512E0	1.263895033E1
1.464685733E1	4.730807353E0	-4.132837751E0	2.933660067E0	6.933054700E0
1.465684833E1	1.379094024E0	3.469293380E-1	3.112530195E0	3.422002996E0
1.466684033E1	-8.393275342E-1	3.027419878E0	1.771998850E0	3.606899187E0
1.467683233E1	-2.054101277E0	4.312299324E0	2.501052940E-1	4.783075389E0
1.468682333E1	-2.522710150E0	4.246650295E0	2.429620430E-2	4.939503572E0
1.469681533E1	-2.024115147E0	3.419454052E0	4.855060101E-1	4.003176768E0
1.470680733E1	-6.903243995E-1	3.005575265E0	7.181830200E-1	3.166357102E0
1.471679833E1	5.834992048E-1	2.997118437E0	6.133892941E-1	3.114391862E0
1.472679033E1	1.312511487E0	2.778103373E0	5.942151046E-1	3.129478606E0
1.473678233E1	1.884391982E0	2.822632259E0	1.085197617E0	3.563122210E0
1.474677333E1	1.913417269E0	1.914272570E0	1.511728610E0	3.100149755E0
1.475676533E1	2.101356428E0	1.003827764E0	1.440704235E0	2.738429789E0
1.476675733E1	2.180253493E0	4.468301868E-1	9.403697596E-1	2.416083151E0
1.477674833E1	2.031124643E0	7.040445256E-1	2.036012185E-1	2.159305320E0
1.478674033E1	1.586739616E0	1.493066052E0	-5.131265026E-1	2.238367184E0
1.479673233E1	5.773002791E-1	2.650106653E0	-1.207834194E0	2.969040977E0
1.480672333E1	-5.364380358E-1	3.139380024E0	-1.769691831E0	3.643526023E0
1.481671533E1	-5.506141716E-1	2.881134236E0	-2.401667231E0	3.791057365E0
1.482670733E1	3.129002970E-1	1.859636772E0	-2.611704479E0	3.221359310E0
1.483669833E1	2.012355812E0	1.062926742E0	-2.643582914E0	3.488254549E0
1.484669033E1	3.090018999E0	4.716235507E-1	-2.306786070E0	3.884830519E0
1.485668233E1	3.485027945E0	-4.264315903E-2	-1.406497001E0	3.758386892E0
1.486667333E1	4.156164341E0	-5.410756087E-1	-2.003240003E-1	4.196021276E0
1.487666858E1	5.731013936E0	-8.123104012E-1	5.175296022E-1	5.811385877E0
1.488666058E1	7.739339554E0	-1.610910251E0	-9.879879490E-2	7.905831378E0
1.489665158E1	9.097163601E0	-3.022257371E0	-1.250435253E0	9.667265049E0
1.490664358E1	9.466849133E0	-4.604415693E0	-1.633461208E0	1.065317192E1
1.491663558E1	9.568415269E0	-5.627561488E0	-1.982508261E0	1.127627412E1
1.492662658E1	9.825696266E0	-5.843224343E0	-2.451929750E0	1.169185774E1
1.493661858E1	1.020961392E1	-5.655002471E0	-2.900323629E0	1.202610271E1
1.494661058E1	1.019817560E1	-5.398769295E0	-2.992085446E0	1.192065731E1
1.495660158E1	9.711355133E0	-5.047869698E0	-2.500485760E0	1.122692460E1
1.496659358E1	9.462902262E0	-5.646792980E0	-2.030425024E0	1.120515131E1
1.497658558E1	8.744864180E0	-7.204380133E0	-1.718423005E0	1.145987436E1
1.498657658E1	6.410750417E0	-7.243902048E0	-1.906146694E0	9.859271424E0
1.499656858E1	4.008731768E0	-6.437567502E0	-2.792232585E0	8.081384073E0
1.500656058E1	2.881060269E0	-6.196259344E0	-3.863194571E0	7.849739513E0
1.501655158E1	2.261461817E0	-5.703886364E0	-4.127057194E0	7.394669044E0
1.502654358E1	1.420952341E0	-4.826066682E0	-3.633324151E0	6.205728769E0
1.503653558E1	-3.023191756E-1	-4.723052775E0	-1.031858146E0	4.843898805E0
1.504652658E1	-1.264023013E0	-5.991222634E0	3.673761156E0	7.140659903E0
1.505651858E1	-1.433682899E0	-7.683914967E0	7.670407898E0	1.095139960E1
1.506651058E1	-2.948792953E0	-9.069636664E0	7.393549254E0	1.206723911E1
1.507650258E1	-5.101564094E0	-9.651222952E0	3.422236158E0	1.144044409E1
1.508649358E1	-5.653855832E0	-9.338628464E0	-1.362712319E0	1.100150227E1
1.509648558E1	-4.565366525E0	-7.969350307E0	-3.920501962E0	9.986163000E0
1.510647658E1	-2.832364657E0	-6.428227159E0	-3.107341375E0	7.681143430E0
1.511646858E1	-1.813582639E0	-5.266998782E0	-4.379565986E-1	5.587679674E0
1.512646058E1	-1.229250791E0	-4.289954774E0	1.276275415E0	4.641513590E0
1.513645158E1	-1.095598425E0	-3.261571044E0	2.211942040E0	4.090338515E0
1.514644358E1	-1.643171533E0	-2.384796844E0	2.869939450E0	4.077232041E0
1.515643558E1	-2.300116298E0	-1.363398197E0	3.412817463E0	4.335517577E0
1.516642658E1	-2.485335039E0	-2.455380338E-1	4.071017479E0	4.776019524E0
1.517641858E1	-2.653391619E0	5.830089158E-1	3.953286423E0	4.796755155E0
1.518641058E1	-3.235148353E0	9.778795749E-1	3.342759925E0	4.753575207E0
1.519640158E1	-3.585411481E0	1.574210202E0	3.083094434E0	4.983852379E0
1.520639358E1	-2.831534645E0	2.157766417E0	3.394248168E0	4.918786942E0
1.521638558E1	-1.941787520E0	2.808266235E0	3.559853594E0	4.932489800E0
1.522637658E1	-2.060663023E0	3.945542663E0	4.247899261E0	6.152908834E0
1.523636858E1	-1.911552738E0	4.099271225E0	4.717517509E0	6.535520629E0
1.524636058E1	-2.067385128E0	4.314104944E0	4.849469578E0	6.811970194E0
1.525635158E1	-2.511839299E0	4.880853338E0	4.853705008E0	7.327381407E0
1.526634358E1	-2.889263620E0	6.195106273E0	5.150305899E0	8.558787114E0
1.527633558E1	-3.038311194E0	7.490066904E0	5.196549189E0	9.609191465E0
1.528632658E1	-3.565232155E0	8.882280765E0	4.891166072E0	1.074845558E1
1.529631858E1	-3.929472468E0	9.380393372E0	4.183094569E0	1.099685473E1
1.530631058E1	-3.472073731E0	9.555785283E0	3.535498479E0	1.076420354E1
1.531630158E1	-3.131200939E0	1.010360975E1	3.673481074E0	1.119740204E1
1.532629358E1	-3.127994326E0	1.027983079E1	3.890714491E0	1.142790133E1
1.533628558E1	-2.766187332E0	9.827877277E0	3.731190169E0	1.087017683E1
1.534627658E1	-2.067893689E0	9.057458083E0	3.313581735E0	9.863749548E0
1.535626858E1	-1.000541336E0	8.320189093E0	2.631156119E0	8.783485188E0
1.536626058E1	4.118830600E-1	7.183631288E0	1.457598596E0	7.341580198E0
1.537625158E1	1.538715557E0	4.943982217E0	-8.440280378E-1	5.246235704E0
1.538624358E1	2.463402134E0	1.477059299E0	-5.275836264E0	6.007037750E0
1.539623558E1	4.564017280E0	-3.867572966E0	-1.093076857E1	1.246074139E1
1.540622658E1	1.112099720E1	-1.136082894E1	-1.366302158E1	2.096242285E1
1.541621858E1	1.433022397E1	-1.909316353E1	-1.338031222E1	2.736671277E1
1.542621058E1	9.177451719E0	-2.301174994E1	-1.140269968E1	2.727247359E1
1.543620158E1	3.516824811E0	-1.800489963E1	-1.009433489E1	2.093896045E1
1.544619358E1	-5.676810612E-1	-7.794517390E0	-6.937650036E0	1.045025125E1
1.545618558E1	-5.166022046E0	9.455941737E-1	-1.472840533E0	5.454465267E0
1.546617658E1	-1.043059774E1	6.655225427E0	1.054188078E0	1.241775774E1
1.547616858E1	-1.338444620E1	8.070745704E0	5.408655767E0	1.653886010E1
1.548616058E1	-1.523276393E1	5.074028971E0	8.280249687E0	1.806503257E1
1.549615158E1	-1.617498309E1	1.912752879E0	6.914395659E0	1.769456326E1
1.550614358E1	-1.596184506E1	-1.914840919E0	6.065774049E0	1.718257048E1
1.551613558E1	-1.502543102E1	-1.119176138E1	-7.519864315E0	2.018830006E1
1.552612658E1	-2.159351013E0	-2.087740630E1	-1.047277137E1	2.345650935E1
1.553611858E1	1.161245480E0	-1.807345122E1	1.281987180E1	2.218889909E1
1.554611058E1	-3.129376608E0	-7.495170354E0	9.957377901E0	1.284990083E1
1.555610158E1	-3.730364981E-1	-1.416458171E0	7.467882568E0	7.610176084E0
1.556609358E1	2.962350892E0	2.750691626E0	1.424959204E1	1.481191077E1
1.557608558E1	1.415926951E0	5.739046841E0	1.593811706E1	1.699897301E1
1.558607658E1	-3.172041986E0	5.555638397E0	1.262630206E1	1.415452126E1
1.559606858E1	-7.231962619E0	4.485044201E0	6.723909745E0	1.084563816E1
1.560606058E1	-7.210157182E0	3.813117846E0	2.387229871E0	8.498535212E0
1.561605158E1	-4.737392779E0	2.107037144E0	2.729092304E0	5.859218435E0
1.562604358E1	-3.088979949E0	-7.487786490E-1	4.822465966E0	5.775694295E0
1.563603558E1	-1.667008146E0	-4.090056013E0	3.991306188E0	5.952982398E0
1.564602658E1	5.009482142E-1	-6.652135758E0	2.471125721E0	7.113952599E0
1.565601858E1	2.006284063E0	-6.977731529E0	3.013688861E0	7.861058045E0
1.566601058E1	2.703839641E0	-6.189125741E0	3.433465151E0	7.576589548E0
1.567600158E1	3.839129477E0	-3.915180995E0	2.731658939E0	6.126134012E0
1.568599358E1	3.142223233E0	-1.888754151E0	1.325265727E0	3.898369959E0
1.569598558E1	1.373773204E0	1.291977382E-1	8.284452081E-2	1.382319821E0
1.570597658E1	7.718839947E-2	2.089800721E0	-5.304675170E-1	2.157457043E0
1.571596858E1	-3.955841656E-1	3.413480537E0	-1.121343935E0	3.614657443E0
1.572596058E1	-3.857817106E-1	4.284378285E0	-6.735208905E-1	4.354119338E0
1.573595158E1	-3.722467585E-1	4.873282948E0	7.164862311E-1	4.939717286E0
1.574594358E1	-4.719441243E-1	5.286353651E0	2.027053666E0	5.681303789E0
1.575593558E1	-3.155259161E-1	4.754368123E0	2.511823511E0	5.386355930E0
1.576592658E1	2.958254041E-1	3.247474576E0	1.878267170E0	3.763175701E0
1.577591858E1	1.438559038E0	1.476792666E0	1.109350711E0	2.341159474E0
1.578591058E1	1.699333600E0	-3.545967919E-1	5.485933739E-1	1.820557129E0
1.579590158E1	1.713400393E0	-6.793534881E-1	1.688230030E-1	1.850881756E0
1.580589358E1	1.679165677E0	6.249252659E-1	-1.009293741E-1	1.794523808E0
1.581588558E1	9.309062603E-1	1.968104961E0	-7.689281541E-1	2.308955199E0
1.582587658E1	2.380116440E-1	2.632429935E0	-1.824410806E0	3.211668055E0
1.583586858E1	-3.594663531E-2	2.477196885E0	-2.707379546E0	3.669836586E0
1.584586058E1	7.265370101E-2	1.571681281E0	-3.332212425E0	3.684983074E0
1.585585158E1	1.786078799E-1	6.790365690E-1	-4.070150337E0	4.130268175E0
1.586584358E1	3.813080424E-1	4.350299209E-1	-4.046656809E0	4.087796250E0
1.587583558E1	2.481006053E0	5.890695548E-1	-2.806515579E0	3.791955125E0
1.588582346E1	6.336228238E0	7.155588627E-2	-1.446914271E0	6.499728412E0
1.589581546E1	9.669793124E0	-1.516405798E0	-4.782613099E-1	9.799648947E0
1.590580746E1	1.106258352E1	-3.460916074E0	5.124621128E-1	1.160264244E1
1.591579846E1	1.075723958E1	-4.787220120E0	8.642921484E-1	1.180604425E1
1.592579046E1	1.018439020E1	-4.899351005E0	-5.295589328E-2	1.130169228E1
1.593578146E1	9.570324969E0	-4.349096437E0	-1.886569047E0	1.068011716E1
1.594577346E1	8.782915521E0	-3.657397723E0	-3.724224381E0	1.021694721E1
1.595576546E1	7.684475130E0	-3.290881382E0	-5.107004929E0	9.796048062E0
1.596575646E1	7.039666992E0	-3.676853748E0	-5.380848164E0	9.593210714E0
1.597574846E1	6.802969948E0	-4.316356122E0	-4.278679004E0	9.122413294E0
1.598574046E1	6.731396520E0	-5.486496241E0	-2.349184523E0	8.996221876E0
1.599573146E1	6.617550062E0	-7.757097548E0	-5.937408954E-1	1.021357232E1
1.600572346E1	5.617938725E0	-8.094394183E0	-3.453693008E-1	9.858992477E0
1.601571546E1	4.202014697E0	-7.355710167E0	-2.070978388E0	8.720799910E0
1.602570646E1	3.643108882E0	-7.332729440E0	-4.109406788E0	9.161243776E0
1.603569846E1	3.561498416E0	-6.409385092E0	-4.373967569E0	8.537920151E0
1.604569046E1	3.366166330E0	-5.113135149E0	-3.220566275E0	6.917172395E0
1.605568146E1	2.279319798E0	-4.806749235E0	-9.696776855E-1	5.407440408E0
1.606567346E1	5.366135985E-2	-5.450239996E0	2.179886434E0	5.870255567E0
1.607566546E1	-2.858660171E0	-6.907857302E0	5.550428528E0	9.311159290E0
1.608565646E1	-6.524800358E0	-9.479401935E0	7.084571854E0	1.351381660E1
1.609564846E1	-9.396130568E0	-1.159256813E1	4.742895302E0	1.565790412E1
1.610564046E1	-8.973109658E0	-1.193751526E1	-2.890348864E-1	1.493668332E1
1.611563146E1	-5.109018125E0	-1.109072266E1	-2.909176898E0	1.255266926E1
1.612562346E1	-1.026170998E0	-9.383512861E0	-2.478446435E0	9.759407629E0
1.613561546E1	8.721258824E-1	-8.099494709E0	-1.265596060E0	8.244037329E0
1.614560646E1	3.690777138E-1	-6.921467866E0	-8.187470162E-1	6.979490129E0
1.615559846E1	-1.360541979E0	-5.973494461E0	-3.021051675E-2	6.126550679E0
1.616559046E1	-2.743497797E0	-4.964742756E0	1.473122515E0	5.860506867E0
1.617558146E1	-2.723253274E0	-2.771379660E0	2.933744267E0	4.868624964E0
1.618557346E1	-2.457843478E0	-1.182790570E0	4.065558518E0	4.895789432E0
1.619556546E1	-3.020656111E0	5.530904675E-1	4.233147905E0	5.229704924E0
1.620555646E1	-3.420592213E0	2.451662679E0	3.868074949E0	5.716039257E0
1.621554846E1	-2.803438189E0	3.803165885E0	3.940980373E0	6.152614300E0
1.622554046E1	-2.822898892E0	4.453516599E0	4.721370239E0	7.077704796E0
1.623553146E1	-2.550763044E0	4.362992930E0	5.390855674E0	7.389412988E0
1.624552346E1	-2.563355023E0	5.396146819E0	5.617906566E0	8.200613614E0
1.625551546E1	-2.818823968E0	6.893817553E0	5.671747727E0	9.361581666E0
1.626550646E1	-3.321402970E0	8.546326066E0	5.617072753E0	1.075280955E1
1.627549846E1	-3.775743613E0	9.050479431E0	5.440509059E0	1.121456894E1
1.628549046E1	-2.916977961E0	8.796812013E0	5.254206828E0	1.065360744E1
1.629548146E1	-2.600916367E0	1.008291060E1	5.175363557E0	1.162816581E1
1.630547346E1	-3.471962049E0	1.110501443E1	5.240000433E0	1.276062187E1
1.631546546E1	-3.570450503E0	1.143093355E1	5.701375569E0	1.326348529E1
1.632545646E1	-3.046124536E0	1.185104196E1	6.084192778E0	1.366541152E1
1.633544846E1	-2.960342374E0	1.207293093E1	6.491036196E0	1.402329630E1
1.634543946E1	-3.364343460E0	1.164392189E1	7.006281729E0	1.399956097E1
1.635543146E1	-3.999097311E0	1.068611171E1	6.965539500E0	1.336804037E1
1.636542346E1	-4.418047096E0	9.974466974E0	6.054133412E0	1.247644432E1
1.637541446E1	-3.799479216E0	8.773354738E0	4.406632747E0	1.052740271E1
1.638540646E1	-1.569009104E0	6.566095149E0	2.953723618E0	7.368845112E0
1.639539846E1	3.948120042E-1	4.009632239E0	3.780458808E-1	4.046720388E0
1.640538946E1	1.242991309E0	9.657927954E-1	-4.198815686E0	4.484176210E0
1.641538146E1	2.164181836E0	-4.662213666E0	-9.483333603E0	1.078672960E1
1.642537346E1	8.165067725E0	-1.558815536E1	-1.429744799E1	2.267324276E1
1.643536446E1	1.809346390E1	-3.388743540E1	-2.968894044E1	4.855064262E1
1.644535646E1	1.260993220E1	-3.970161195E1	-1.869851624E1	4.566029885E1
1.645534846E1	8.931930350E-1	-2.114503570E1	-1.047579672E1	2.361467013E1
1.646533946E1	-4.581857428E0	-2.708772937E0	-7.100859273E0	8.874292689E0
1.647533146E1	-9.640657618E0	7.373264093E0	-7.058407903E-1	1.215752910E1
1.648532346E1	-1.595517456E1	1.217821122E1	1.186246566E0	2.010680493E1
1.649531446E1	-1.497004736E1	1.015759358E1	1.007475023E1	2.070699441E1
1.650530646E1	-1.208889851E1	4.071864740E0	1.143423723E1	1.713077145E1
1.651529846E1	-1.016261751E1	1.370096768E0	5.991353027E0	1.187654288E1
1.652528946E1	-7.571214563E0	-8.723227143E-1	1.655108770E0	7.798950052E0
1.653528146E1	-5.699378160E0	-7.962183375E0	-6.875471914E0	1.196458898E1
1.654527346E1	2.511424146E0	-1.666499496E1	-3.007508354E0	1.711941631E1
1.655526446E1	1.002814295E0	-1.871249108E1	1.161394789E1	2.204646785E1
1.656525646E1	-2.353608673E0	-1.253666425E1	7.756975341E0	1.492910214E1
1.657524846E1	9.617181632E-1	-3.930051634E0	9.595919986E0	1.041402362E1
1.658523946E1	6.807929995E-1	2.658369938E0	1.119742265E1	1.152877634E1
1.659523146E1	-1.342453178E0	6.770144849E0	8.875362339E0	1.124318009E1
1.660522346E1	-3.889010905E0	7.895863670E0	7.377637226E0	1.148471157E1
1.661521446E1	-6.446151214E0	7.117374149E0	7.192507946E0	1.199758521E1
