Time (s),Linear Acceleration x (m/s^2),Linear Acceleration y (m/s^2),Linear Acceleration z (m/s^2),Absolute acceleration (m/s^2)
0.003770999989,1.1328067061043636,-4.514204025450909,-0.21059684772763637,10.156423518127273
0.01376199999,1.1328067061043636,-4.514204025450909,-0.21059684772763637,10.156423518127273
0.02375399999,1.1328067061043636,-4.514204025450909,-0.21059684772763637,10.156423518127273
0.03374499999,1.1328067061043636,-4.514204025450909,-0.21059684772763637,10.156423518127273
0.043737,1.1328067061043636,-4.514204025450909,-0.21059684772763637,10.156423518127273
0.053728,1.1328067061043636,-4.514204025450909,-0.21059684772763637,10.156423518127273
0.06372000001,1.1328067061043636,-4.514204025450909,-0.21059684772763637,10.156423518127273
0.073711,1.1328067061043636,-4.514204025450909,-0.21059684772763637,10.156423518127273
0.08370300001,1.1328067061043636,-4.514204025450909,-0.21059684772763637,10.156423518127273
0.09369400001,1.1328067061043636,-4.514204025450909,-0.21059684772763637,10.156423518127273
0.103686,1.1328067061043636,-4.514204025450909,-0.21059684772763637,10.156423518127273
0.113677,1.1328067061043636,-4.514204025450909,-0.21059684772763637,10.156423518127273
0.123669,1.1328067061043636,-4.514204025450909,-0.21059684772763637,10.156423518127273
0.13366,1.1328067061043636,-4.514204025450909,-0.21059684772763637,10.156423518127273
0.143652,1.1328067061043636,-4.514204025450909,-0.21059684772763637,10.156423518127273
0.153643,1.1328067061043636,-4.514204025450909,-0.21059684772763637,10.156423518127273
0.163635,1.1328067061043636,-4.514204025450909,-0.21059684772763637,10.156423518127273
0.173626,1.1328067061043636,-4.514204025450909,-0.21059684772763637,10.156423518127273
0.183618,1.1328067061043636,-4.514204025450909,-0.21059684772763637,10.156423518127273
0.193609,1.1328067061043636,-4.514204025450909,-0.21059684772763637,10.156423518127273
0.203601,1.1328067061043636,-4.514204025450909,-0.21059684772763637,10.156423518127273
0.213592,1.1328067061043636,-4.514204025450909,-0.21059684772763637,10.156423518127273
0.223584,1.1328067061043636,-4.514204025450909,-0.21059684772763637,10.156423518127273
0.233575,1.1328067061043636,-4.514204025450909,-0.21059684772763637,10.156423518127273
0.243567,1.1328067061043636,-4.514204025450909,-0.21059684772763637,10.156423518127273
0.253558,1.1328067061043636,-4.514204025450909,-0.21059684772763637,10.156423518127273
0.26355,1.1328067061043636,-4.514204025450909,-0.21059684772763637,10.156423518127273
0.2735398333,1.1328067061043636,-4.514204025450909,-0.21059684772763637,10.156423518127273
0.2835318333,1.1328067061043636,-4.514204025450909,-0.21059684772763637,10.156423518127273
0.2935228333,1.1328067061043636,-4.514204025450909,-0.21059684772763637,10.156423518127273
0.3035148333,1.1328067061043636,-4.514204025450909,-0.21059684772763637,10.156423518127273
0.3135058333,1.1328067061043636,-4.514204025450909,-0.21059684772763637,10.156423518127273
0.3234978333,1.1328067061043636,-4.514204025450909,-0.21059684772763637,10.156423518127273
0.3334888333,1.1328067061043636,-4.514204025450909,-0.21059684772763637,10.156423518127273
0.3434808333,1.1328067061043636,-4.514204025450909,-0.21059684772763637,10.156423518127273
0.3534728333,1.1328067061043636,-4.514204025450909,-0.21059684772763637,10.156423518127273
0.3634638333,1.1328067061043636,-4.514204025450909,-0.21059684772763637,10.156423518127273
0.3734558333,1.1328067061043636,-4.514204025450909,-0.21059684772763637,10.156423518127273
0.3834468333,1.1328067061043636,-4.514204025450909,-0.21059684772763637,10.156423518127273
0.3934388333,1.1328067061043636,-4.514204025450909,-0.21059684772763637,10.156423518127273
0.4034298333,1.1328067061043636,-4.514204025450909,-0.21059684772763637,10.156423518127273
0.4134218333,1.1328067061043636,-4.514204025450909,-0.21059684772763637,10.156423518127273
0.4234128333,1.1328067061043636,-4.514204025450909,-0.21059684772763637,10.156423518127273
0.4334048333,1.1328067061043636,-4.514204025450909,-0.21059684772763637,10.156423518127273
0.4433958333,1.1328067061043636,-4.514204025450909,-0.21059684772763637,10.156423518127273
0.4533878333,1.1328067061043636,-4.514204025450909,-0.21059684772763637,10.156423518127273
0.4633788333,1.1328067061043636,-4.514204025450909,-0.21059684772763637,10.156423518127273
0.4733708333,1.1328067061043636,-4.514204025450909,-0.21059684772763637,10.156423518127273
0.4833618333,1.1328067061043636,-4.514204025450909,-0.21059684772763637,10.156423518127273
0.4933538333,1.1328067061043636,-4.514204025450909,-0.21059684772763637,10.156423518127273
0.5033448333,1.1328067061043636,-4.514204025450909,-0.21059684772763637,10.156423518127273
0.5133368333,1.1328067061043636,-4.514204025450909,-0.21059684772763637,10.156423518127273
0.5233278333,1.1328067061043636,-4.514204025450909,-0.21059684772763637,10.156423518127273
0.5333198333,1.1328067061043636,-4.514204025450909,-0.21059684772763637,10.156423518127273
0.5433108333,1.1328067061043636,-4.514204025450909,-0.21059684772763637,10.156423518127273
0.5533028333,1.692163570758909,-4.441200953310909,0.06200656527599997,10.72252172329091
0.5632938333,2.254749448558909,-4.3257931503290905,0.3528246716032727,11.280903037272727
0.5732858333,2.790929898577091,-4.1934497377109095,0.6423721248396363,11.800615114763636
0.5832768333,3.2462740141989097,-4.058202422383636,0.9000787778214545,12.241154024654547
0.5932688333,3.628953879769091,-3.9318724192400003,1.1074706505123637,12.607159808454544
0.6032598333,3.976003867052728,-3.808443719441818,1.2803740931123635,12.93502015489091
0.6132518333,4.3021588717981825,-3.6480943923672733,1.406783708754182,13.27264726732727
0.6232428333,4.6483873731436365,-3.465935022672727,1.3758554462814545,13.471669946418183
0.6332348333,4.915550286827273,-3.248459815309091,1.279593638645091,13.637662840327271
0.6432258333,5.111982624827273,-2.989220718727273,1.1969973773178184,13.817900894236363
0.6532178333,5.277811052109091,-2.733331502563636,1.1255245853014546,14.017687351527272
0.6632088333,5.389152297338183,-2.4984210675272727,1.0323942380705453,14.220539967363637
0.6732008333,5.445847324229091,-2.3145463347272726,0.8944131208487273,14.4061596834
0.6831918333,5.45854828062909,-2.1927084483545456,0.6808882312487273,14.555097258618183
0.6931838333,5.455894895229091,-2.085363706581818,0.48277611304872725,14.653694947618181
0.7031748333,5.437346816210909,-1.9626230951618182,0.34995512643054544,14.74958914361818
0.7131668333,5.380514617634546,-1.851703375701818,0.2624500345378182,14.872306803109092
0.7231578333,5.242463777670909,-1.8001957925672725,0.18907106084872724,14.997946102527273
0.7331498333,5.003612242289091,-1.7516361283854547,0.17620082357999994,15.16220716452727
0.7431408333,4.798952284434545,-1.68029330404,0.17105206315272725,15.293977258727272
0.7531328333,4.655737638107273,-1.6862983386945452,0.08467836498181815,15.371911299163635
0.7631238333,4.549026911925455,-1.716479657912727,0.056724070818181774,15.41179264241818
0.7731158333,4.542524956961818,-1.6833181564036361,0.1337341388545454,15.396193098636365
0.7831068333,4.698160200252727,-1.6831062134399999,0.20407197036,15.236888988490907
0.7930988333,4.713058980161819,-1.7793975601345453,0.19245291497999995,15.178382695836364
0.8030898333,4.495754046325454,-1.901186610292727,0.37756801230727266,14.947958078818182
0.8130818333,4.254422010398182,-2.0709787627472727,0.5942704861981819,14.827864337927272
0.8230728333,4.1158643151981815,-2.11688653922,0.7454468608163636,14.813566802309088
0.8330648333,4.147893050234545,-1.9805443168199999,0.8159399996890908,14.844449308145453
0.8430558333,4.213106047052727,-2.01845498402,0.9096196556145454,14.86398148369091
0.8530478333,4.175743604161818,-2.0781033026018183,1.0198994929963636,14.901422548054546
0.8630388333,4.2380557600890905,-2.0961720282381817,1.1199474790636363,14.893556155872727
0.8730308333,4.3641423011254545,-2.0476175893472726,1.262502187361818,14.805068029345456
0.8830218333,4.453775800761818,-1.9207941289654544,1.4339262365618182,14.62587614461818
0.8930138333,4.53381822952,-1.7271084380618185,1.5452823283981818,14.418324080163634
0.9030048333,4.680219209701818,-1.4353979721890908,1.6716377297254545,14.26236925410909
0.9129968333,4.960955631865454,-1.2158845238636364,1.8208938574709093,14.160577737745456
0.9229878333,5.298220659883636,-1.0310404396454544,1.8731319146709091,14.098163436290909
0.9329798333,5.622816132501819,-0.7630653104563637,1.915881982070909,13.975902565927273
0.9429708333,5.932957776974546,-0.4089617471109091,1.9164951955072727,13.848002305381819
0.9529628333,6.24268284452,-0.024240780565454544,1.9034567232163635,13.749441419563635
0.9629538333,6.520049027283637,0.3037547627618181,1.9412832968163636,13.649721144472727
0.9729458333,6.736603465629091,0.47035774541636366,2.0287311710345453,13.54924409358182
0.9829368333,6.9251616055381815,0.6097487857436363,2.153769529561818,13.483204998309091
0.9929288333,7.068743547374546,0.781519771470909,2.300152106950909,13.423201461400001
1.002920833,7.148029155069091,0.9326659691981817,2.4464027492327274,13.383582046327271
1.012911833,7.134308791105455,1.0683133987981819,2.5312379173963637,13.314314544927273
1.022903833,7.049077341189092,1.1987404449618182,2.5495238617599996,13.23122632361818
1.032894833,6.8865024522254545,1.3545518489545452,2.439076188032727,13.08001101869091
1.042886833,6.555331222225454,1.5709300309545455,2.248274120650909,12.997887924872728
1.052877833,6.14346464218909,1.7644848930454546,2.004219397796364,12.862789270145454
1.062869833,5.643950532007272,1.8927484162454546,1.71037748356,12.7036987316
1.072860833,5.034517974189091,1.901548231281818,1.3916391669236363,12.527861262145453
1.082852833,4.3459051010981815,1.742980513609091,1.0901943627054544,12.350775607963635
1.092843833,3.6495417543709094,1.4969714706454547,0.6861452547418182,12.118288700145454
1.102835833,2.903006788370909,1.3274144108272725,0.2998196740872727,11.776888292145452
1.112826833,2.0866202400072726,1.1269237728818182,0.012031541759999992,11.458778991963637
1.122818833,1.3578985507345454,0.8358766363727272,-0.08018068624000001,11.164860029236364
1.132809833,0.7386200791345454,0.5145679475363637,-0.11718818178545456,10.936356409781817
1.142801833,0.06972276295272721,0.2903081068636364,-0.06994965338545456,10.853795616872729
1.152792833,-0.46286190195636373,0.03882308259090909,-0.11271493416727274,10.715848846145454
1.162784833,-0.7825917682054547,-0.13138043476363634,-0.30320276685818187,10.4254265378
1.172775833,-1.2066434566963635,-0.3272762243272727,-0.29457647593090913,10.264903074363636
1.182767833,-1.7084590734236365,-0.5730734811818182,-0.13134208485818186,10.286015725636362
1.192758833,-2.199977445787273,-0.7897214642727274,0.01746198666909088,10.310451042545454
1.202750833,-2.4801547253690908,-1.0736958087090909,0.007847250505454524,10.2005038816
1.212741833,-2.521426786750909,-1.398090466618182,-0.12257623411272729,10.229254083054546
1.222733833,-2.365016957514545,-1.6926619645454546,-0.40674660922181816,10.500371749054546
1.232724833,-2.0401292092781818,-1.9071267143454547,-0.7891548744218182,10.960247858690908
1.242716833,-1.8464254238218183,-1.988999013292727,-0.8201787973309091,11.058550383872726
1.252707833,-1.730018225370909,-2.0199074164927273,-0.7411483754290911,11.049960421709091
1.262699833,-1.6279779866072728,-2.0544956000927272,-0.6409644548654546,11.00861702050909
1.272691333,-1.5176502817854545,-2.09993047502,-0.5741174988054546,10.879767742854545
1.282683333,-1.3561015685672728,-2.2576043022563637,-0.6140552840490909,10.765669102690909
1.292674333,-1.2450759666763638,-2.5010457371836363,-0.6267294455763637,10.713534686690908
1.302666333,-1.1953594574581818,-2.6442309507472723,-0.5055268924127273,10.703585732763637
1.312657333,-1.1696804424763638,-2.688382223638182,-0.4074383348854546,10.689547833363637
1.322649333,-1.1853282666400002,-2.711296994006,-0.40417206426727276,10.701905957090908
1.332640333,-1.2537242856763637,-2.711114890447818,-0.4353843153727273,10.768475452127275
1.342632333,-1.2875564561854544,-2.6581954412623636,-0.44793624616909095,10.813859076018183
1.352623333,-1.26715743972,-2.6017033220678183,-0.4717822999072728,10.817234085181818
1.362615333,-1.2636158609381818,-2.4495519773823635,-0.5090352988709091,10.699729063109089
1.372606333,-1.2451876804018185,-2.3783607979096364,-0.5442081561800001,10.627383002036364
1.382598333,-1.2015777613290908,-2.506120737636909,-0.6116254682527273,10.57931838278182
1.392589333,-1.1402636241054547,-2.4896951115278183,-0.6886217501381818,10.527874804036363
1.402581333,-1.1061481639781818,-2.425415011436909,-0.7137766180545455,10.463856870145454
1.412572333,-1.0887914059781818,-2.4097132174369094,-0.7050546533781819,10.452702174145456
1.422564333,-1.0828518255781818,-2.4458632029459997,-0.711286424458,10.488041836436363
1.432555333,-1.0437554653054546,-2.5044632327641816,-0.7012935329125455,10.558484896672729
1.442547333,-0.9917234852636364,-2.5805164996314547,-0.5863873838216364,10.619134716872727
1.452538333,-1.0032009529727273,-2.705127841304182,-0.4788190119670909,10.574417137018182
1.462530333,-1.1216377092818184,-2.743679852375091,-0.4609297533503637,10.460902398836362
1.472522333,-1.2340532793545456,-2.750780785484182,-0.40435212658672737,10.344233423890907
1.482513333,-1.2781515765545455,-2.8021842749096364,-0.32852285858672736,10.285554047690908
1.492505333,-1.2907781497,-2.909156491236909,-0.21926303873218186,10.240863609072727
1.502496333,-1.3499387892454546,-3.0496051866187273,-0.12704051691400006,10.157233990290909
1.512488333,-1.4908821218272728,-3.120540577000545,-0.08621771836854551,10.014135287381817
1.522479333,-1.6872604927181818,-3.0166551058096363,-0.07366613044127276,9.904059385763635
1.532471333,-1.9202585134454546,-2.9483940936641813,-0.02795415064127279,9.879390566581819
1.542462333,-2.104986860009091,-2.9294005830641816,-0.04679283760490914,9.835919827090908
1.552454333,-2.147197192209091,-2.8296318387550907,-0.21167083984127275,9.700275813
1.562445333,-2.093200925118182,-2.717392131627818,-0.35935728253218185,9.662878673981819
1.572437333,-1.9902174773109094,-2.6631144593005454,-0.4905013780594546,9.64770991938182
1.582428333,-1.8316292199654545,-2.6826857279678182,-0.5284686024558183,9.677522969763634
1.592420333,-1.570233765838182,-2.8016187853678183,-0.5013356733154546,9.590549788545456
1.602411333,-1.3727969106981819,-3.0103161818405457,-0.40417172537000007,9.539855724145456
1.612403333,-1.1663433088763637,-3.209159340186,-0.3005300405518182,9.456408728763638
1.622394333,-0.8253561081127273,-3.2516272422223635,-0.2742171249227273,9.283095950472728
1.632386333,-0.4644751541127272,-3.104848191713273,-0.28193481170454554,9.05267085889091
1.642377333,-0.19915512864,-2.8975150995278183,-0.18047158681363643,8.788686118672727
1.652369333,0.04477230561454545,-2.8254813575314546,-0.08349342883181825,8.565626580236364
1.662360333,0.32674787515818177,-2.7661120892876365,-0.07271546087909096,8.291441944703635
1.672352333,0.5203207413218182,-2.625049680794909,-0.22975747254818188,8.030051421721817
1.682343333,0.6510211873218182,-2.439112932704,-0.3953780671954546,7.79518757994
1.692335333,0.8792479810127273,-2.333258145867636,-0.6061224968681819,7.509944449703636
1.702326333,1.015629767849091,-2.182860976504,-0.7177278555227273,7.34815173514
1.712318333,0.97766836808,-2.1062230305858183,-0.6602006994209093,7.362431483703636
1.722309333,1.0249624981163636,-2.0366499245130907,-0.7668679940754546,7.29123707234
1.732301333,1.1619883822981818,-1.9353035057312726,-0.9663249824463637,7.079229587921818
1.742292333,1.32633123548,-1.8943680845039998,-1.081360277919091,6.883282121194546
1.752284333,1.3388974441163637,-1.8034490691845455,-0.9644151356281819,6.832577202485455
1.762275333,1.176467395989091,-1.661124406300909,-0.6615227947372728,6.662576398612727
1.772267333,0.8716406686072726,-1.51404956109,-0.14340686290090912,6.303722885849091
1.782258333,0.4677458634072727,-1.3790356719263637,0.5149146902081818,5.766786683139999
1.792250333,0.25083025839999995,-1.3370737773063635,0.7567475348445454,5.600450011849091
1.802241333,0.1670642110909091,-1.3482358036881819,0.8214308137972727,5.562902662158182
1.812233333,0.15942586569090905,-1.3414466015972728,0.8406188001245454,5.571941509630909
1.822224333,0.22872623636,-1.2743716811972727,0.8932647404827272,5.66768798614
1.832216333,0.3336634887418181,-1.1157691353790908,0.9959516334463635,5.683183565739999
1.842207333,0.4488851429599999,-0.9116991084336363,1.0703454100281817,5.65497765394
1.852199333,0.5670322495418182,-0.7324658529063637,1.1024221241190908,5.641835686612727
1.862190333,0.6885292631781817,-0.6246204878154544,1.13373721181,5.678093369121818
1.872182333,0.8365423738690909,-0.6152845575221818,1.1870955370463636,5.7016678045218185
1.882173333,1.0151272050690907,-0.6861492497494546,1.2619637965554547,5.6639300172672735
1.892165333,1.1341664798145454,-0.8403011714221819,1.31226459147,5.686076657921818
1.902157333,1.1624255733927273,-1.0197166155676365,1.3157952306463634,5.78109268894
1.912148333,1.1702816797163635,-1.1760281053440003,1.1850860191372727,5.922117806049091
1.922140333,1.1155790158163637,-1.306381295853091,0.8190552947009089,6.231121745285455
1.932131333,1.059994700761818,-1.3318597088167272,0.6360058698099998,6.327143254049091
1.942123333,1.0815601410654545,-1.1880213399985453,0.5925685419499999,6.271954770940001
1.952114333,1.1267341637381818,-0.9556871802349092,0.6208981529572726,6.210943085140001
1.962106333,1.13143223672,-0.7031984335076363,0.6694673773409089,6.106050261758183
1.972097333,1.1131178217381816,-0.4944119361076364,0.7209461735770908,6.007281870849091
1.982089333,1.09287841832,-0.3398372713803637,0.7427422067952727,5.949332826121818
1.992080333,1.066111342829091,-0.24244424016218183,0.7233971961407273,5.895409234303637
2.002072333,1.0340068438109091,-0.20748194109309095,0.7067369292316363,5.8562508495036365
2.012063333,0.9687530121470909,-0.19968371158400003,0.6997696448694545,5.807999656067272
2.022055333,0.8301051794561819,-0.20008058869309092,0.6303506713967272,5.812534933412728
2.032046333,0.6501842913652727,-0.2010593062749091,0.6021298053239998,5.743941897685454
2.042038333,0.4616709358016363,-0.1909220416567273,0.5991595898730908,5.617955577376363
2.052029333,0.3070275131289091,-0.16905021256581818,0.6115481361821817,5.513950494649091
2.062021333,0.23181148249254538,-0.17058506414763638,0.6318877874549089,5.50191486524909
2.072012333,0.25226364481981817,-0.19498593094945454,0.6125985273458181,5.476927115667273
2.082004333,0.3143800625470909,-0.14125156063854546,0.4841132351894544,5.335795106121819
2.091995333,0.34061913980163633,-0.07456408738036364,0.37388969055490895,5.238355053394546
2.101987333,0.26027254952890905,-0.07784347168945455,0.3893969144419999,5.247320190703636
2.111978333,0.1433878408743636,-0.08781719499854547,0.42648302057472715,5.206304810830909
2.121970333,0.027706951656181773,-0.0660730053258182,0.4623411609219999,5.165637460540001
2.131961333,-0.08933465907109095,-0.0044477962330909246,0.4949440991783635,5.1287875804309095
2.141953333,-0.19905296176200005,0.10662995220327272,0.511158408248909,5.091142584049091
2.151944333,-0.23315711815290913,0.3018059176396363,0.45343144480345443,5.007904826085455
2.161936333,-0.23450097841109097,0.4982044826941818,0.3790198076398181,4.934788562903637
2.171927333,-0.30485142928200004,0.6094777939123636,0.35608475939254536,4.917513069412728
2.181919333,-0.37917903929290914,0.6938921007669091,0.34400526235618173,4.896209136285455
2.191910333,-0.4251807592674546,0.7701901108178182,0.3544505742361817,4.892458265958182
2.201902333,-0.4347457622038182,0.8394918529305454,0.3827665373052726,4.921691565849091
2.211893333,-0.401807126002,0.9089266883049091,0.4188259574252726,4.984284249563637
2.221885333,-0.33079096431109095,0.9753668137030909,0.45830232027618173,5.049310845090909
2.231876333,-0.23201894700200004,1.037302658775818,0.5122182280325454,5.11157579269091
2.241868333,-0.11390565327472735,1.0985266957212727,0.600551442468909,5.17116427630909
2.251859333,0.014187381070727227,1.1447893875576365,0.7167607286143636,5.2274143279090906
2.261851333,0.13733788628890906,1.1624699643576364,0.8260017284034545,5.286286353527273
2.27184225,0.3049323441252727,1.1955581351212727,0.9316178425307272,5.321331420709091
2.28183425,0.4927572113070909,1.2272914422485455,1.009273225228909,5.329512257290909
2.29182625,0.6675550454707272,1.2617483611667273,1.0496842495379999,5.316723551054546
2.30181725,0.7969380633070909,1.2909976753927275,1.0740830219743636,5.298028734436364
2.31180925,0.8855094162252728,1.2985621013381818,1.0827572707016362,5.275227021127273
2.32180025,0.9536577711252727,1.2877659405654545,1.0259749169743635,5.1967002403454545
2.33179225,0.9977322355198182,1.243628690358182,0.9002716449870908,5.092352518018182
2.34178325,1.0092391346587273,1.163494566630909,0.7361544359507272,5.083080118
2.35177525,0.9838844275132727,1.0672291975218182,0.5683105359143635,5.093415540854545
2.36176625,0.9165043901132727,0.9586023680127271,0.4492681781143635,5.058114578690908
2.37175825,0.8215942089132727,0.8378248649036364,0.37253685216890897,4.991442903490909
2.38174925,0.7203657231496362,0.7119392661036362,0.31726018305981807,4.931096694509091
2.39174125,0.6356420985896364,0.5913437177218183,0.26592727484527257,4.86904197629091
2.40173225,0.5767773121641817,0.47533941370363636,0.20754270429436347,4.808514177490909
2.41172425,0.5343656576914545,0.36416550515818186,0.12561264016709078,4.76268359289091
2.42171525,0.5053860143823636,0.2844833924690909,0.01384706780345441,4.7520214852
2.43170725,0.4889905147278182,0.25614116212363636,-0.10400348392381831,4.765164683836363
2.44169825,0.46252439474599993,0.28875575095999995,-0.1889992697965456,4.737493293545454
2.45169025,0.42050790839327273,0.3746365501236363,-0.20246891311654558,4.6580199441636365
2.46168125,0.3746559409423636,0.4875800281236363,-0.06848832264381832,4.5498426000545455
2.47167325,0.38841976565145453,0.6240291961018182,0.3126410661016363,4.272261887272728
2.48166425,0.39315663757872726,0.7192510285745455,0.5290081277743636,4.175193217090909
2.49165625,0.3576999138927272,0.7032300191472727,0.609917897938,4.173402763109091
2.50164725,0.310870050110909,0.6424711547836364,0.606173258628909,4.103924954218182
2.51163925,0.28288649860181814,0.5687595064090909,0.5624781482961817,4.045641140345455
2.52163025,0.26928142580181813,0.48203415668181815,0.5157023526598181,4.021926920709091
2.53162225,0.2563272597290909,0.3725947130272727,0.47408761255436355,4.021768385800001
2.54161325,0.2627591783290909,0.25723113626363636,0.4331330363707272,4.061664041836364
2.55160525,0.2979747628563636,0.14782989086727277,0.38237701712163624,4.140601708618182
2.56159625,0.3603138744474545,0.06147156555818183,0.3674940486307272,4.244083158963636
2.57158825,0.4447572206838182,0.0325669606309091,0.46897185966163624,4.214635395109091
2.58157925,0.5071944432292728,0.02982165035818183,0.541183415488909,4.191361324945454
2.59157125,0.5408024261656363,0.023047204521818188,0.5714777945943635,4.197433319127273
2.60156225,0.5762529890056364,0.008999694158181819,0.5671738186143636,4.206605735763636
2.61155425,0.6289233627329092,-0.022650050932727272,0.5366326258737999,4.224476116218182
2.62154525,0.6962479858056364,-0.08469715257636364,0.5021648524028909,4.269776951345454
2.63153725,0.7708667898238181,-0.17928506183272727,0.4754585135192544,4.335390950345455
2.64152825,0.8528238361874545,-0.2950619516909091,0.45677670735016357,4.399410387854545
2.65152025,0.9332459140238182,-0.42877055096363637,0.4453043240594362,4.45689523210909
2.66151125,0.9965290745329091,-0.5735567321818182,0.4320217065903454,4.508323636181818
2.67150325,1.0397187754656363,-0.7181473505999999,0.41579152100125444,4.549114685109091
2.68149425,1.076209895523818,-0.8557636653454547,0.3968327667794363,4.573283322981818
2.69148625,1.1036277940438182,-0.9832395367272727,0.37714518636125444,4.57878091070909
2.70147725,1.120182894789818,-1.1010934426363637,0.3679852333394363,4.570675698509091
2.71146925,1.1294664486498183,-1.212532463927273,0.38314033657216356,4.548907884109091
2.72146125,1.131594712888,-1.3161772211818181,0.42156857538852716,4.514224542272728
2.73145225,1.1333198355261818,-1.4116560759999999,0.45709993611761807,4.4801437762
2.74144425,1.1386652617352728,-1.5046388182363635,0.4640018459503454,4.456573580945454
2.75143525,1.1491240408170909,-1.6038564784363638,0.44738629961216353,4.438840148763637
2.76142725,1.1562715921807274,-1.7189219854181819,0.4134400207048908,4.419235273981818
2.77141825,1.1464113048534545,-1.851043884236364,0.3675029603048909,4.391078601072727
2.78141025,1.1165705766534544,-2.0008332514545453,0.30512249294125443,4.355100673327272
2.79140125,1.0731388116116363,-2.1644189432727274,0.21750786675943623,4.310634237963637
2.80139325,1.017466935829818,-2.332886401036364,0.1146580012648908,4.256557167890909
2.81138425,0.9505767867830909,-2.5042150821454547,0.002631090263072622,4.201607565563637
2.82137625,0.8718751558030909,-2.6778551569636364,-0.10676389595147283,4.160760290218182
2.83136725,0.779123361294,-2.8566697093454545,-0.19704259066056373,4.153264388781818
2.84135925,0.6939746268758182,-3.042675316363636,-0.2749527179314728,4.195706895781818
2.85135025,0.6324043736394546,-3.240237945109091,-0.36479276515874554,4.281520328890909
2.86134225,0.5884135882121817,-3.4524764473018186,-0.46389890298965464,4.395420770254546
2.87133325,0.554248891875818,-3.6727350648309094,-0.5276839672369273,4.563479274345454
2.88132525,0.5176939228812727,-3.899665610678182,-0.5236444129878365,4.786552786290909
2.89131625,0.47392191767690905,-4.14086714736909,-0.4460972728896546,4.963685500145454
2.90130825,0.436413592076909,-4.394217348387272,-0.3382983240688728,5.1301206126
2.91129925,0.42019169756781816,-4.64317033696909,-0.2522465523270546,5.327829827345455
2.92129125,0.4207634330041818,-4.873974471805455,-0.19453372321796375,5.540193604090909
2.93128225,0.4320258188587272,-5.0820526268599995,-0.15966451712705462,5.739185215818181
2.94127425,0.44655097231145446,-5.266505723750909,-0.12737497500341827,5.923490038018182
2.95126525,0.46994227480963635,-5.406484813223636,-0.07082380956160009,6.073755527
2.96125725,0.49798469980963633,-5.482804808823636,0.013489563711127174,6.1686700448
2.97124825,0.5324924389914545,-5.486746331841818,0.11996075338385447,6.204205644763635
2.98124025,0.5881646430096363,-5.424825955296363,0.23492667163839992,6.204064790181818
2.99123125,0.6766918129005455,-5.315745190496363,0.31502539845658173,6.217561339127273
3.00122325,0.8145100001187272,-5.145342463823637,0.18829702982930902,6.374304886981818
3.01121425,1.0189555565187274,-4.946282607660001,-0.07591768051614552,6.634470453127273
3.02120625,1.2116620673550909,-4.776424703274546,-0.2551589361161455,6.798754710636364
3.03119725,1.3429802398096362,-4.622591157183637,-0.3997001190070546,6.9287951168727275
3.04118925,1.377693702641091,-4.51087201172,-0.4773620984252364,7.010346459381819
3.05118025,1.2864292098956362,-4.411997274774546,-0.5359984075525092,7.112733162527274
3.06117225,1.0698368124956363,-4.3068219184545455,-0.5642050622379637,7.274226726145455
3.07116325,0.8200821121865455,-4.195401204254545,-0.5045312975834183,7.4471229742
3.08115525,0.5746120176774544,-4.047444524509091,-0.3801425434597819,7.629218080872728
3.09114625,0.3168055765865454,-3.8478697306363636,-0.2377096060761455,7.810300399090909
3.10113825,0.04663295209563636,-3.6079289386545454,-0.09105232117250915,7.975546879018181
3.11113025,-0.22736572352254547,-3.351275836909091,0.05678119493658175,8.13658990229091
3.12112125,-0.4804846619043637,-3.0951549487090904,0.1735593407420363,8.318772695745455
3.13111325,-0.6877270106498182,-2.8349558189818187,0.22712618831476358,8.522081140381818
3.14110425,-0.8486908641316363,-2.5718280740545456,0.25411786069658177,8.729142030218181
3.15109625,-0.9934407872807273,-2.3203234775818187,0.3189366435674908,8.932762762363636
3.16108725,-1.1287380537716365,-2.058029843309091,0.40904812119896355,9.117410270036363
3.17107925,-1.2485313216443639,-1.7511048265272726,0.501514293833509,9.285819415727273
3.18107025,-1.3505599643170907,-1.4060746960545456,0.6014412053280546,9.451333499090909
3.19106225,-1.4429466041898182,-1.047399832690909,0.7072460356771454,9.615360259981816
3.20105325,-1.524622814098909,-0.6881556844181819,0.8153680750626,9.777517376854545
3.21104525,-1.5872360963170908,-0.3362527155272727,0.9322555053444181,9.943005465254547
3.22103625,-1.6284837110134547,0.005032166945454558,1.062468511513509,10.123193457254544
3.23102825,-1.6359561150734547,0.3471597288545455,1.2107470379480545,10.335388294945455
3.24101925,-1.584178431757091,0.7092392239454545,1.3787294160098724,10.605458411545454
3.25101125,-1.4705203455976363,1.117658221909091,1.5678602215680544,10.9627116692
3.26100225,-1.3179235693303637,1.5399150597818179,1.7508709697898726,11.360806475618181
3.270994333,-1.1597967476612725,1.9009266405454546,1.8999713197371455,11.7104317076
3.280985333,-1.0070255635794547,2.1932580062727274,2.021713453953509,12.000076350563637
3.290977333,-0.8595936262503637,2.443860930272727,2.121347850513509,12.248646553818183
3.300968333,-0.7250957086867272,2.677825431981818,2.195349220437145,12.46468005309091
3.310960333,-0.6029307569776364,2.9024055565454545,2.2549650949989632,12.64998947241818
3.320951333,-0.47677548457763647,3.1237480246363636,2.3004741631262364,12.818143317327273
3.330943333,-0.31702717154127275,3.347990860527273,2.2807920551626,12.9926490398
3.340934333,-0.11763785409945458,3.5764898421636366,2.1768719791080544,13.2044561816
3.350926333,0.08785086559145454,3.8115088094727265,2.0553107577298726,13.417024425181818
3.360917333,0.27853440525636364,4.051810151381818,1.9187289004771453,13.613659420581817
3.370909333,0.44233281945454545,4.3020466568909095,1.8234014274189636,13.754944721545455
3.380900333,0.5905615076909091,4.578604297345454,1.8175053343589633,13.843153390272729
3.390892333,0.7307722599272727,4.886805495472728,1.8682976462116907,13.907914123145453
3.400883333,0.8678574348545455,5.229027771690908,1.952107002784418,13.95204535830909
3.410875333,1.0025282492727272,5.603275854054545,2.0497243969971453,13.974005023945454
3.420866333,1.130953535709091,6.001752969418181,2.1492695863171454,13.975099508490908
3.430858333,1.2530105929999997,6.425194974145454,2.2377616669462363,13.947368729218182
3.440849333,1.2994202625672728,6.855576241672727,2.2435550058226,13.849381626854546
3.450841333,1.1653880836945454,7.254962290836364,2.081243018292727,13.843517091036363
3.460832333,1.1993832054654545,7.718421193563636,2.069696356758182,13.76384338121818
3.470824333,1.1484143608472728,8.122780544181818,1.9027284094854544,13.713193305763635
3.480816333,0.8417927773381817,8.302404585054546,1.3269549073945452,14.100407393945453
3.490807333,0.6340798978818183,8.331973912145454,1.130578226849091,14.198540150672725
3.500799333,0.3343024485181817,8.115613920145455,1.1468632274309092,14.486280301218182
3.510790333,-0.06867711868181821,7.68410848810909,1.3070912407581816,15.02103417958182
3.520782333,-0.6123801099000001,6.797006149418181,1.4417138129763636,15.982378802854544
3.530773333,-1.1227386788090907,5.589258281218181,1.5436313771581816,17.183757707163636
3.540765333,-1.2599147354272728,4.591624281563637,1.568625927703636,18.046031588254547
3.550756333,-1.1891042521363637,3.996101463072727,1.657623569212727,18.343672470436363
3.560748333,-1.2050546059363638,3.6722221256181813,1.7863729215581816,18.24589980789091
3.570739333,-1.288991471681818,3.506203003359999,1.79112230654,18.12849871252727
3.580731333,-1.3662680292272726,3.4163996793236358,1.7683693020672726,18.045707347490907
3.590722333,-1.3619710512999998,3.4006079339054547,1.712900684812727,18.054277055127276
3.600714333,-1.2217049751,3.420889628632727,1.6855598060854542,18.08021653441818
3.610705333,-0.9351578132272729,3.4562752129599996,1.6664265682854544,18.048745935763638
3.620697333,-0.5776181814636363,3.4895269463236365,1.5904027301854546,17.991985402945453
3.630688333,-0.19649703733636362,3.459997305941818,1.4865059552763635,17.90933498167273
3.640680333,0.1867679618090909,3.331043322232727,1.411723660458182,17.81011260912727
3.650671333,0.5404936461181817,3.0878343194327273,1.3843344305672725,17.72976825530909
3.660663333,0.8555140797727272,2.7470170440509087,1.3974793115672726,17.699802359127272
3.670654333,1.1338073759,2.346970642232727,1.4353101164399997,17.69912649221818
3.680646333,1.3559601219181818,1.9115954060509088,1.48808787164,17.694236447854546
3.690637333,1.5129360547236366,1.4881988607781815,1.4983145774036362,17.650044028218183
3.700629333,1.6068853629781819,1.1128574341781814,1.3952141374399998,17.570637649527274
3.710620333,1.6597461326872727,0.7792086538690904,1.2242852251490908,17.482488074072727
3.720612333,1.7172734163781818,0.4461436595054542,1.0566673944036362,17.363682157254544
3.730603333,1.7812027021938182,0.08749632059636334,0.8968718092945454,17.227121153709092
3.740595333,1.8318510144065454,-0.30014184311272757,0.7398169895672727,17.10102802861818
3.750586333,1.8628842716065457,-0.7097201526400004,0.5975075826036362,16.99126352176364
3.760578333,1.8759590657338179,-1.1317534672581822,0.46849038518545444,16.895788974945454
3.770569333,1.8758020706429093,-1.5607549194400003,0.3447988952454545,16.803090854218183
3.780561333,1.8498941105901818,-2.0075024585309094,0.2202690212272726,16.696116608036363
3.790552333,1.779854069792,-2.4896686667127277,0.08867253193636356,16.548808034763635
3.800544333,1.6549057244974545,-3.027162526349091,-0.05950056919090917,16.3238947824
3.810536333,1.489484481370182,-3.5795659779309092,-0.2024435166818183,16.0587742598
3.820527333,1.3182150099574543,-4.073108326730909,-0.3190560374636364,15.843040153072728
3.830519333,1.1494093891192727,-4.509140768658182,-0.41622742731818196,15.69561596530909
3.840510333,0.9812571839865454,-4.926134081203636,-0.5042398541927273,15.607929564763635
3.850502333,0.8109361349501818,-5.360908415021818,-0.5869423182109091,15.582593244763634
3.860493333,0.6423071212810909,-5.820351492476364,-0.6579269208836364,15.6175810044
3.870485333,0.4758469674683637,-6.304334813076364,-0.6960649065618183,15.698323511127274
3.880476333,0.28671357051309093,-6.812368039967273,-0.657550131613091,15.799131890945455
3.890468333,0.06492116988945454,-7.318610870785455,-0.5402287449240001,15.860401266581817
3.900459333,-0.15885759916690914,-7.790886481658182,-0.42626384074218193,15.884208891854545
3.910451333,-0.34228961267781816,-8.165398698603637,-0.33487760630581825,15.8285213024
3.920442333,-0.46651233245963636,-8.422656689512728,-0.34817591823309096,15.7505867584
3.930434333,-0.5395957878778183,-8.583405641874181,-0.5310916466094546,15.750614019490909
3.940425333,-0.5473681301687273,-8.706845509856,-0.7680882246821819,15.775040729127275
3.950417333,-0.5659704620414545,-8.862694314776,-0.8995198756458183,15.673040962218183
3.960408333,-0.6085351780232727,-9.034035912921455,-0.9515556058821819,15.518138174745456
3.970400333,-0.6448715143141818,-9.200191477290545,-0.980856434082182,15.378478680818183
3.980391333,-0.6810091462596364,-9.35965774192691,-0.9807875432640002,15.25599525898182
3.990383333,-0.669244218796,-9.48955814532691,-0.867413861693091,15.205860384472729
4.000374333,-0.5204249524869091,-9.555393509163272,-0.574062411893091,15.082063525927273
4.010366333,-0.5632725301850909,-9.660328257836,-0.443292235173091,15.057287484436364
4.020357333,-0.5411608430032728,-9.688291163363273,-0.1768866581003638,15.024887041709093
4.030349333,-0.28804912329418186,-9.47370447254509,0.4808468564814544,14.577766302436364
4.040340333,-0.17642024825781819,-9.108690536454182,0.7488596205178181,14.461312419163635
4.050332333,-0.031103235621454575,-8.517362297908727,0.7881692659723634,14.216173282072726
4.060323333,0.1762433902876364,-7.745456603363273,0.685762087826909,13.792452364254546
4.070315333,0.4956679254330909,-6.554374267181454,0.6256759296996363,13.010426781163636
4.080306333,0.7602301305058182,-5.05709457372691,0.6149017438269089,12.046933943527273
4.090298333,0.6444300165603636,-3.782004631181455,0.6983395975541817,11.453052828436363
4.100289333,0.31118491728763636,-2.975173432454182,0.8888686531359998,11.327668834254546
4.110281333,0.02284479708763637,-2.496473868545091,1.1402841061541817,11.486763863890907
4.120273333,-0.19177352183963636,-2.203559205686909,1.4239888195541817,11.729542468345455
4.130264333,-0.3498883992396364,-1.9674985621778185,1.715520509536,11.993042654654547
4.140256333,-0.47797668405781824,-1.5606932043960002,2.071533614026909,12.443429781145454
4.150247333,-0.6285396060214545,-1.130981389923273,2.4993358979723634,12.954691912927274
4.160239333,-0.7963533397487274,-0.8066473836505457,2.9281302099541815,13.378209065581817
4.170230333,-0.9773453580214546,-0.5428996106687274,3.2594548163996357,13.687708049127274
4.180222333,-1.1690561252396365,-0.28445318912327283,3.471770089926909,13.899614788763637
4.190213333,-1.361535503657818,0.016432695676727185,3.5861955499996365,14.053510948036365
4.200205333,-1.5358141635487275,0.3871949975312726,3.6124871405632724,14.142840866036366
4.210196333,-1.6805327562578183,0.8238397600767271,3.5615101736178185,14.148434796399998
4.220188333,-1.7957308302396364,1.285727951894909,3.469551549926909,14.103683280218181
4.230179333,-1.8735715617123636,1.7362050151676363,3.3781447705087273,14.051824220036362
4.240171333,-1.9025747586632729,2.150820615894909,3.297168440417818,14.038576367672729
4.250162333,-1.8640137269341819,2.5212203161312727,3.2118486550178185,14.091456683272726
4.260154333,-1.7983443283396363,2.8395124582585454,3.199707220017818,14.143400967818181
4.270145333,-1.7545079506123638,3.122393245822182,3.200198641290545,14.20369678718182
4.28013725,-1.7271485229189092,3.392627250131272,3.1758187181450905,14.260555447636362
4.29012825,-1.7057978867280001,3.6682152521312723,3.1625795056178183,14.275345883836364
4.30012025,-1.6918153791407273,3.9605212835676364,3.1714138511087273,14.24987748890909
4.31011125,-1.6773059673134547,4.275748432240364,3.1998098917887265,14.213144478127273
4.32010325,-1.664781564277091,4.606382972876728,3.243975931892363,14.183444198363635
4.33009425,-1.658608855397091,4.940028967840364,3.2883029774014543,14.153573495781819
4.34008625,-1.6616816190516364,5.271218749513091,3.3321328766923632,14.122462958436362
4.35007725,-1.6667887639134547,5.596568757458545,3.379261886692363,14.097495071345454
4.36006925,-1.6759211300389092,5.911386239585819,3.430871144946909,14.081621660781819
4.37006025,-1.695006823335273,6.216618274767637,3.4926798290378183,14.069398837709093
4.38005225,-1.7263873307334545,6.519369134349454,3.570400317819636,14.050409733963637
4.39004325,-1.7779088621461818,6.8349760862403635,3.6725043324214544,14.015724657927272
4.40003525,-1.844821509018909,7.175216103185819,3.7798106626214545,13.931661735145456
4.41002625,-1.9394135618225457,7.4802243600403635,3.686606151439636,13.811135852381819
4.42001825,-2.0573031543552727,7.790550383109454,3.530721633317818,13.702105430381819
4.43000925,-2.3056968541272727,8.098945177164,3.350333183241818,13.664215617836364
4.44000125,-2.6874449951399995,8.281477474327636,3.128409913843636,13.790886225472729
4.44999325,-3.0260218939018184,8.399357618327636,3.104642159643636,13.876425229654547
4.45998425,-3.4345872105727273,8.169141171236728,2.881585920425455,14.313033660745456
4.46997625,-3.858909853754546,7.85021064065491,3.2127561404254545,14.76565468801818
4.47996725,-4.2297990083363635,7.312318181616364,3.6524101566072726,15.227543624927272
4.48995925,-4.432431332536364,6.590411220161818,3.9542961598981816,15.686978199290909
4.49995025,-4.321556004136363,5.872287322136363,4.028878333756364,16.303099353836366
4.50994225,-4.024898341936363,5.275355005736364,3.9891059582654544,16.9255113644
4.51993325,-3.787630859809091,4.829611189105455,3.923050058714545,17.363937042327272
4.52992525,-3.7113260882454546,4.513530166287273,3.812911397041818,17.58869950107273
4.53991625,-3.728204012439091,4.308101097578182,3.682245965223636,17.639447125181817
4.54990825,-3.732079073875455,4.220869751069091,3.5586375858036363,17.534103486254544
4.55989925,-3.699131757200909,4.274523886941818,3.4494300560036364,17.510616468145454
4.56989125,-3.6124890817827278,4.384361122032727,3.3064902181763633,17.554662524327274
4.57988225,-3.4506614244372726,4.401430462814545,3.12160383734,17.554272645236363
4.58987425,-3.218268909473636,4.350661747141818,2.9399489733763637,17.52696235669091
4.59986525,-2.9232113378372726,4.262150934214546,2.784337485667272,17.486098900145453
4.60985725,-2.589975455928182,4.127581805596364,2.679453894758182,17.42455147741818
4.61984825,-2.249941335437273,3.9208886857781815,2.614582975994545,17.326727155781818
4.62984025,-1.9462753015463636,3.6132475127054544,2.5381623604490913,17.149257803254546
4.63983125,-1.74381890411,3.2422550218327273,2.453474749430909,16.868569261036363
4.64982325,-1.6176021508918184,2.8712027192872727,2.372250672812727,16.554993978872727
4.65981425,-1.4822918716827271,2.5507854013418183,2.268504615194545,16.212235320618184
4.66980625,-1.2740494098463635,2.308870982650909,2.105653679169091,15.910792627327272
4.67979725,-1.0120418532463638,2.032667300669091,1.910581863263927,15.659406468818181
4.68978925,-0.7771012173736364,1.486465725069091,1.6549673864275636,15.212915485418181
4.69978025,-0.5660281875554545,0.8524001980145455,1.325185438954836,14.69551700070909
4.70977225,-0.40003304421,0.2950736461418182,0.9857265488639271,14.25890290330909
4.71976325,-0.2627208431554546,-0.189017018749091,0.7013992452093817,13.93618640870909
4.72975525,-0.1383075307190909,-0.6083471550218184,0.46771408619301796,13.698625581890909
4.73974625,-0.020161880628181788,-0.9806453822581819,0.27262638718938165,13.493729642309091
4.74973825,0.0960707571718182,-1.3144082470036365,0.12073390673483618,13.309449102454545
4.75972925,0.19582773795363637,-1.6220996424218184,0.010224701698472555,13.135238107436365
4.76972125,0.27839401102636363,-1.91640073324,-0.05739661175607289,12.975358298763636
4.77971225,0.3538400711354546,-2.203921839203636,-0.09047256716880016,12.845184382527274
4.78970425,0.4023146370809091,-2.4969246779490906,-0.0825497972760729,12.734602521545453
4.79969625,0.41157489908636363,-2.7953746659854546,0.00040411963301801554,12.608969608218182
4.80968725,0.41296312908090915,-3.082462716530909,0.05841190357847255,12.50050730329091
4.81967925,0.40803688312454545,-3.3525248126945453,0.09820607588756346,12.406219228690908
4.82967025,0.39096422538272735,-3.60017567944,0.1535389367602907,12.31450315638182
4.83966225,0.38739364175,-3.8241941417309095,0.19577679870574527,12.241323798363636
4.84965325,0.40582270767000006,-4.043686922894546,0.20143809416029074,12.193011120163636
4.85964525,0.42889195283363635,-4.274251502567273,0.16823415382574528,12.14609569510909
4.86963625,0.45355583603181815,-4.519458105603636,0.1026610509039271,12.09145422649091
4.87962825,0.48423359846090913,-4.773323010421818,0.02203163878210892,12.042223543709092
4.88961925,0.5262689354409091,-5.0352679486581815,-0.07362489696334562,12.005435577963638
4.89961125,0.57167359887,-5.311451920130909,-0.18106704338152746,11.983086493345455
4.90960225,0.6244648691045454,-5.60314070884,-0.294334935526982,11.978926460236364
4.91959425,0.6891759648681819,-5.907682496167273,-0.4138191062906184,11.995103594527272
4.92958525,0.7662553835409092,-6.220086513458182,-0.539380745436073,12.029267072945455
4.93957725,0.8615224947409093,-6.537931141712727,-0.6639992419815275,12.071218610072728
4.94956825,0.9751813423590909,-6.862190378112727,-0.7675101538124366,12.142433251218181
4.95956025,1.1253218508318181,-7.144812282785455,-0.6610864222615274,12.243817674527273
4.96955125,1.325787159686364,-7.440089146218182,-0.4855040459124365,12.34779557270909
4.97954325,1.7079682659045454,-7.747912975727273,-0.24937166242152742,12.4132828278
4.98953425,2.2830384595409092,-7.963606597618182,0.0709598822875635,12.372693440709089
4.99952625,2.8247622162681822,-8.108139860163636,0.22010748037847258,12.375611527799999
5.00951725,3.3719130289954546,-7.8779328538,0.5868324659966544,11.988105827254545
5.01950925,3.884485066777273,-7.5780153316181815,0.4393216098875635,11.555893625618182
5.02950025,4.290948660122727,-7.072764613763637,0.2335022181784726,10.99148830830909
5.03949225,4.423587909959091,-6.304023347290909,0.06924799823301804,10.416412722745454
5.04948325,4.2727327761045455,-5.44271884969091,-0.12856163017061834,9.937944568199999
5.05947525,4.041621460504545,-4.728614210727273,-0.20467448017061834,9.445649020018182
5.06946625,3.8768361433409093,-4.162225484581818,-0.23334076852880017,9.115376912199999
5.07945825,3.8888207134863637,-3.6868172545818187,-0.31731758934698195,9.053065231836364
5.08945025,3.9911830487763633,-3.3262819029090913,-0.46028435094698195,9.156825084236363
5.09944125,4.030376043596364,-3.1482385770181818,-0.5534540286724365,9.28971116738182
5.10943325,3.972198730267273,-3.192069263018182,-0.5513518376906184,9.269417639454545
5.11942425,3.8372122592309093,-3.3436368642545453,-0.43933397924516376,9.206130037254546
5.12941625,3.6067687807036366,-3.4357708140545453,-0.24012678919061836,9.21383018470909
5.13940725,3.27066118234,-3.4794398086,-0.07206750960880019,9.256104627436363
5.14939925,2.843775933158182,-3.4987875328909097,0.028295891227563458,9.318459413618182
5.15939025,2.399118975521818,-3.4750595636727275,0.07416522491847254,9.374552642163636
5.16938225,1.995236545158182,-3.372183204963636,0.0885331892639271,9.427350957618183
5.17937325,1.671054906649091,-3.168652610236364,0.09918653977301801,9.5159825796
5.18936525,1.4896766478854544,-2.869934554090909,0.015176371209381647,9.698160188
5.19935625,1.404502075430909,-2.588243845,-0.024032101463345622,9.888353135981818
5.20934825,1.3134407814036364,-2.3932380761454546,0.028818323991199823,10.089732630599999
5.21933925,1.1660888632218183,-2.2506799285454546,0.12542443161665437,10.257491938436363
5.22933125,0.9393324475127273,-2.0874857662,0.2574586594127271,10.3756839564
5.23932225,0.6984476810581818,-1.8445540489636365,0.4197994152309089,10.525579577072728
5.24931425,0.4773649781854546,-1.4861378133636365,0.6211608152490907,10.750443003600001
5.25930525,0.28632070318545455,-0.9285163065818182,0.8824105167945452,11.143344365909092
5.26929725,0.1566219862218182,-0.26004243496363644,1.1718206029945453,11.6179927116
5.279288208,0.08170283465818183,0.366726415490909,1.4756583801927268,12.066248784236363
5.289280208,0.034772077167272736,0.8946198379999999,1.7921802459236362,12.46912958
5.299271208,-0.016348396378181813,1.3080366425636363,2.106122779850909,12.8094823504
5.309263208,-0.08351512338181817,1.6310496139818182,2.3911233239418177,13.089311552690907
5.319254208,-0.1690606804,1.9225827817090908,2.6288923350327273,13.330890976272727
5.329246208,-0.2709028580181818,2.209144348945454,2.8225661720454545,13.531887504145454
5.339237208,-0.36241318100000003,2.5021240540545455,2.9892054925163634,13.697734952581818
5.349229208,-0.43710709780727275,2.7955634671818177,3.134064668225454,13.831664855727274
5.359220208,-0.5118905461236364,3.080318244818182,3.255823783298182,13.943868319018181
5.369212208,-0.588055675549091,3.3543726072181816,3.3580533336254543,14.041090028163635
5.379204208,-0.6718318651163637,3.6267471496545456,3.3750892230072727,14.143359892836363
5.389195208,-0.7998495554327273,3.9214927776545454,3.162701574243636,14.401144520654546
5.399187208,-0.8985553981945454,4.207689329818182,3.079721802025454,14.556100788999998
5.409178208,-0.9634263541672728,4.481729903436364,3.0878014208272724,14.653793114745454
5.419170208,-1.0153403161472727,4.749526894581819,3.131071350876363,14.729194854181818
5.429161208,-1.0636130096199998,5.0158940076,3.1947702245072724,14.7864219386
5.439153208,-1.1160600037654544,5.2866342106727275,3.263051452070909,14.8221899908
5.449144208,-1.174837310529091,5.565660439254545,3.3315674612890906,14.833593643090909
5.459136208,-1.2424011458563637,5.855462172,3.3958915271799994,14.818813704436364
5.469127208,-1.3183645622745455,6.155793889636363,3.454369275761818,14.776015268654547
5.479119208,-1.4001076271290906,6.463426791581818,3.5154100370527273,14.709531123581817
5.489110208,-1.480842214729091,6.773646002127273,3.5807717657799993,14.626053045236365
5.499102208,-1.5642507260563638,7.088322024163636,3.6547745071381814,14.51900748070909
5.509093208,-1.6678531866745454,7.422756425672728,3.73236139236909,14.373707584345453
5.519085208,-1.8132828220745454,7.772062146454546,3.729385789507272,14.145291073581818
5.529076208,-1.998299021729091,8.103869362200001,3.524511579034545,13.928486996854543
5.539068208,-2.258763381256364,8.468331225472728,3.3658205223254543,13.589383283436364
5.549059208,-2.6269492618199997,8.643626317418182,3.1551926941981816,13.448620830345453
5.559051208,-2.941406991329091,8.413409445236363,2.768769247125454,13.738499337618181
5.569042208,-3.1676859234018186,8.1093769716,2.6891217499509086,13.99717150961818
5.579034208,-3.5166549083836363,7.566459341018182,2.8761621387509093,14.561921453836364
5.589025208,-3.7993072399836363,6.671579684727273,3.1103715749872727,15.302314581581818
5.599017208,-3.877525975329091,5.696107217127272,3.3469927218781814,15.867649668672726
5.609008208,-3.832737419729091,4.9980686430727275,3.3656864616781816,16.273206250854546
5.619000208,-3.7734205212927274,4.5058945002,3.3558315218963632,16.48799041049091
5.628991208,-3.749690011183636,4.10599074929091,3.421049175223636,16.50490282358182
5.638983208,-3.6631405031472726,3.8261774110363636,3.478671401750909,16.464765794127274
5.648975208,-3.414187654185455,3.726099795527273,3.40278557786,16.599136970454545
5.658966208,-3.0729748678036364,3.6945515793636363,3.258671738732727,16.774970732527272
5.668958208,-2.780889616658182,3.600586271,3.184026396332727,16.798080750545456
5.678949208,-2.5806140286763637,3.4394634476727273,3.1463003682418176,16.735726463363637
5.688941208,-2.391279739918182,3.283152680818182,3.160865250878181,16.64382607869091
5.698932208,-2.1692589948272727,3.1531474953272727,3.214766564514545,16.50426995261818
5.708924208,-1.9371136043836363,3.0595475529014546,3.2387092009690903,16.327568597327275
5.718915208,-1.691300081601818,3.020280182828727,3.187519639914545,16.166542673272726
5.728907208,-1.41923583502,3.005657869919636,3.0783177101690904,16.09080257478182
5.738898208,-1.1293020508745453,2.8781060060832724,3.0573247813872726,16.011396515327274
5.748890208,-0.8109301845472727,2.6764634985559996,2.9921682155145453,15.965027762054545
5.758881208,-0.4656262449472727,2.4261441221196365,2.859126842041818,15.962109652418182
5.768873208,-0.17834752194727269,2.0883193985014543,2.74285813224,15.967417273327273
5.778864208,0.02899662683454547,1.7061266510469089,2.6368194930036357,15.934378439145457
5.788856208,0.22658082648909092,1.3207517638105453,2.497962069530909,15.83690532532727
5.798847208,0.4299819000709091,0.9251384445741816,2.284680067912727,15.618272872818183
5.808839208,0.6005218715254546,0.4179598678832725,1.9873716479054542,15.17092174670909
5.818830208,0.6893950098709091,-0.17884439444400024,1.6813580632872724,14.614662216527273
5.828822208,0.713840166670909,-0.753942888571273,1.3982640357781817,14.09932964409091
5.838813208,0.7133342283618181,-1.2684652916803638,1.1206061035054544,13.6602022834
5.848805208,0.7183636311800001,-1.7141411318258184,0.8406242352890907,13.320367692690908
5.858796208,0.7481047866199999,-2.1038256508076367,0.5642932860836362,13.083686905763637
5.868788208,0.7987552131272728,-2.475514821480364,0.3023753833199998,12.913655133272727
5.878779208,0.8641268396018181,-2.828133351389454,0.06085273875636343,12.778554269054544
5.888771208,0.9259476114770909,-3.1503653474985454,-0.14981090624363658,12.65061685370909
5.898762208,0.9858962803196363,-3.432879408280364,-0.30755381566181844,12.50986921029091
5.908754208,1.0484197493167273,-3.6792192548440004,-0.4177477361890911,12.35671115769091
5.918746208,1.114173773065818,-3.8947704385712734,-0.4845740542327275,12.191239331072728
5.928737208,1.1967819866221818,-4.094917377244,-0.4473129967490912,12.0101327758
5.938729208,1.3181750899112725,-4.317305837802182,-0.18207122018000022,11.679389146949092
5.948720208,1.4031530842849091,-4.533646555074909,-0.04870226839818203,11.458409450985455
5.958712208,1.4455979163885455,-4.7499964897476366,-0.015604708852727484,11.304945765094546
5.968703208,1.4654971607030909,-4.974392522711272,-0.02584114224909112,11.188427736367274
5.978695208,1.4699213235394544,-5.213685613293092,-0.07226971826763658,11.105302698167272
5.988686208,1.4687605183394545,-5.476266005674909,-0.14018948159490932,11.062285379167275
5.998678208,1.4744115067576364,-5.760440409965819,-0.22331277106763658,11.058072785185455
6.008669208,1.4948678498521821,-6.0640479185476375,-0.31436326901309114,11.088874785603636
6.018661208,1.535450665363091,-6.386168115784,-0.413148450522182,11.157837666167273
6.028652208,1.5942872030903636,-6.723831360456727,-0.5220158663767275,11.260854679058184
6.038644208,1.6643246073267273,-7.075457192638545,-0.636754694722182,11.392059566858181
6.048635208,1.756105714854,-7.435631058856727,-0.739598503031273,11.548433195203637
6.058627208,1.885460817544909,-7.809819488911273,-0.825627542413091,11.738446642112727
6.068618208,2.0658181418358184,-8.201847603874908,-0.8313763201907275,12.017657535421817
6.078610208,2.300997657635818,-8.572935797802183,-0.6333563913361819,12.28892803233091
6.088601208,2.6164433646176364,-8.947644747074909,-0.46716084795436386,12.664281942476364
6.098593208,3.027445683726727,-9.084682570111273,-0.24953677313618206,12.798632728840001
6.108584208,3.387514385054,-8.817125166111273,0.13738288460927253,12.509215526112728
6.118576208,3.6411205558903634,-8.468125796784,0.2194056908929089,12.245928069894548
6.128567208,3.995544971817636,-7.863489348493091,0.011690305034727072,11.679752071494544
6.138559208,4.306715705054001,-6.933389849856728,-0.33426992605618205,11.047769960949092
6.148550208,4.477757521763091,-6.002578851293092,-0.5599859520016366,10.486839697312726
6.158542208,4.4796923760539995,-5.330285004293091,-0.529211970965273,10.086123279676363
6.168534208,4.457710746908545,-4.831488592002182,-0.5261359102925457,9.903594973312728
6.178525208,4.445582951872182,-4.431004116911273,-0.6126536732198183,9.903504721312729
6.188517208,4.252550333814,-4.217022091984001,-0.6286748314743639,9.847381753912726
6.198508208,3.848601213286727,-4.211337354511273,-0.48275314223618204,9.696617399985456
6.208500208,3.376075426559454,-4.244687618765819,-0.3247146401089093,9.60582055453091
6.218491208,2.951522089468545,-4.182367452147637,-0.3054715597089093,9.667742792167273
6.228483208,2.635924546232182,-4.030696727329455,-0.34351740921800017,9.798274508439999
6.238474208,2.3860846094740005,-3.8755545743658186,-0.37264090201800015,9.939647916749092
6.248466208,2.158247309474,-3.733798803038546,-0.3755133307634548,10.103231832821818
6.258457208,1.9217414059394544,-3.616398726103637,-0.35233494665436377,10.307952902112726
6.268449208,1.6555324335212727,-3.552196074976364,-0.29053900418163653,10.501228626712726
6.278439833,1.344383292484909,-3.5225757070672734,-0.1963066269089093,10.610714726112729
6.288431833,0.985660907284909,-3.4454910552309097,-0.07630028649072745,10.700496336476364
6.298422833,0.5864839120121818,-3.3082743817400004,0.05356868545472709,10.753953006112727
6.308414833,0.16205927746672724,-3.0804540598309096,0.19339144701836347,10.78794231884
6.318405833,-0.2238614419878182,-2.742116184576364,0.35504126927472707,10.85679912193091
6.328397833,-0.5266807990241819,-2.327245432576364,0.5212936317110907,10.989677617567272
6.338388833,-0.801161008806,-1.8648467257036367,0.7217073309292725,11.207191636476363
6.348380833,-1.0640276064423637,-1.2201846511945456,1.0307526916383634,11.691192221349091
6.358371833,-1.2540904369332726,-0.40667469904909126,1.4133697980092725,12.445677701821817
6.368363833,-1.3460356173332726,0.2494780792781815,1.791442767354727,13.090516358185454
6.378354833,-1.4227044631150911,0.753516786132727,2.1462231697729086,13.590657004803637
6.388346833,-1.5469138087150909,1.1448938934236361,2.467937852045636,13.971116174767273
6.398338833,-1.7188720861150908,1.4727640512054543,2.7540700980801813,14.258051223294547
6.408329833,-1.896439873915091,1.7868741583690906,3.014698339103818,14.470854460403634
6.418321833,-2.0491147251314543,2.1012285941690907,3.2469010960492724,14.615199088894546
6.428312833,-2.1782545333514545,2.4057917822963635,3.4526051858856364,14.716611554385455
6.438304833,-2.281080558154,2.6854470543509086,3.628389445322,14.807636129003637
6.448295833,-2.3691552060510905,2.9305049998963635,3.758440068994727,14.91477921005818
6.458287833,-2.4498475315572725,3.14381630666,3.852374312703818,15.03980292684
6.468278833,-2.523575164088182,3.3305252911872723,3.909463719674727,15.17965584625818
6.478270833,-2.582227850735455,3.496529550878181,3.879475987154727,15.31981597505818
6.488261833,-2.6024919506681816,3.652833747581818,3.771877653640182,15.476270609872728
6.498253833,-2.628827796678182,3.8097335841999995,3.7329320917310906,15.5967006444
6.508244833,-2.651388401181818,3.9848619136181815,3.737001470765636,15.706201748290908
6.518236833,-2.66476651166,4.18372793990909,3.756780071071091,15.798604293781818
6.528227833,-2.6671427031509087,4.409012887836363,3.7899657561259996,15.86463701050909
6.538219833,-2.6624700283509086,4.658772271181818,3.8310916397805452,15.88872597212727
6.548210833,-2.6587035085145456,4.9267088832,3.8661845869132723,15.869142649145454
6.558202833,-2.6644700432218182,5.206214020018181,3.8872256276587267,15.811727245036364
6.568193833,-2.682707716152727,5.494713652163637,3.9044526518950913,15.71452221670909
6.578185833,-2.7113018558454547,5.796408653418181,3.9584170304041817,15.5678059486
6.588176833,-2.753423262510909,6.115296275981818,4.044278220129636,15.39080837589091
6.598168833,-2.8194585359945457,6.445985706109091,4.1282239603478175,15.19314426069091
6.608159833,-2.908154200723636,6.765658163218181,4.124023296711454,14.925274207072729
6.618151833,-3.0160275042163636,7.086431055745455,4.032407059401819,14.658531166818182
6.628143833,-3.2206854885436362,7.463281797641818,4.032882198838181,14.280923001454545
6.638134833,-3.6221935985618177,7.66870775146,3.7942590078018177,14.089730510181818
6.648126833,-3.9646259705436364,7.7039585732781815,3.5699325779836366,14.002084608909088
6.658117833,-4.203134720943637,7.6599227456418175,3.5950530244018175,13.980703384545453
6.668109833,-4.411862384725454,7.330589412496363,3.6910697911654546,14.245908961309091
6.678100833,-4.543005972616363,6.507730538569091,3.7909950096236362,14.946593198254545
6.688092833,-4.4710979457618185,5.31687192756909,3.88315050906,15.798928323709092
6.698083833,-4.410679017270909,4.3150589760963625,3.8182805630236363,16.48417472298182
6.708075833,-4.47528156478,3.706519383823636,3.719503251332727,16.82132637952727
6.718066833,-4.515761870634545,3.367687546441818,3.60246633966,16.881117004981817
6.728058833,-4.543637514452727,3.1807272273345455,3.574756342150909,16.811987608618182
6.738049833,-4.428471289176364,3.1133292961163637,3.585374673150909,16.80318517212727
6.748041833,-4.214595439067272,3.041600608678181,3.584072918161818,16.716744911745455
6.758032833,-4.037951032921818,2.891413471314545,3.6563914301981817,16.67286824829091
6.768024833,-3.89724198754,2.6832700932054543,3.8178699236890905,16.706576484109092
6.778015833,-3.7315557844672727,2.486891600023636,3.9767558043981817,16.703540758109092
6.788007833,-3.477288559274545,2.3565990717145455,4.047684018652727,16.58478160710909
6.797998833,-3.178039490910909,2.2640602819763633,4.024165996361818,16.38980961709091
6.807990833,-2.8293537451109088,2.19894007514,3.909940513681818,16.20522757649091
6.817981833,-2.4153685592927268,2.130768397812727,3.741270731627272,16.121834468672727
6.827973833,-1.9775552467472726,1.982314896085454,3.6309507504454546,16.060182357036364
6.837964833,-1.5733156047472727,1.7801505405890905,3.5364881204454544,15.976069115581819
6.847956833,-1.2238379544927274,1.5511750427709088,3.4576602753272723,15.872765458927272
6.857948833,-0.9408730095290909,1.2625518641890907,3.404218675109091,15.747606249363635
6.867939833,-0.6919293340745455,0.9244158348254541,3.3242881779999993,15.609249340181817
6.877931833,-0.4168899391290909,0.5386380318799997,3.1807905423090905,15.442316776181817
6.887922833,-0.14639840218363628,0.09630828740727237,2.9531219529872725,15.201813783636364
6.897914833,0.09852098561636369,-0.5682810874290913,2.6142435318963635,14.719947710672727
6.907905833,0.27079196147090917,-1.4444933483200004,2.2086237130363635,14.00105434838182
6.917897833,0.3489233287800001,-2.1660359113745455,1.8134258224763633,13.40015934529091
6.927888833,0.4346878799800001,-2.7179540120290913,1.448195890203636,12.940936456254546
6.937880833,0.5812156118527273,-3.1433227699745454,1.1240320192581816,12.599368616381819
6.947871833,0.7896518238345456,-3.488367135683637,0.8378586991909089,12.343104618690909
6.957863833,1.0199824351618183,-3.801133584592728,0.5808647923981816,12.146438792509091
6.967854833,1.2283666707254546,-4.096910342501818,0.3446677918163634,11.999471961945456
6.977846833,1.3906369410345454,-4.368497594501818,0.13087447248909073,11.877607899127273
6.987837833,1.518391793689091,-4.611566391701818,-0.05371388640181835,11.763111901127273
6.997829833,1.617585799230909,-4.827933719156364,-0.1981941625472729,11.640302557709092
7.007820833,1.692041240001818,-5.02448801152,-0.2934569175654547,11.500961547254546
7.017812833,1.744722043049091,-5.2070355114109095,-0.3385429037654547,11.360522766454547
7.027803833,1.7662025286127274,-5.3775814310654555,-0.30030868620000023,11.239895181581819
7.037795833,1.7394158117836365,-5.534863282227272,-0.18783294558181834,11.112488316109092
7.047786833,1.71595745502,-5.680067369258182,-0.1479601016363638,11.02095293818182
7.057778833,1.7043535784745454,-5.82370289285709,-0.1412374355454547,10.925741039181819
7.067770833,1.6975571577290909,-5.974621102280727,-0.14681697629090928,10.822603659563637
7.077761833,1.69382773182,-6.141015233044364,-0.14982592954545473,10.721529581
7.087753833,1.6949266548745454,-6.322844322753454,-0.13861583109090925,10.639099852654544
7.097744833,1.699980597390909,-6.527803477317091,-0.11103668364181836,10.592827701672729
7.107736833,1.7110971563454547,-6.774731256117092,-0.08258761269636382,10.609040613763636
7.117727833,1.7311174964909088,-7.091273114080727,-0.076384801278182,10.727203412818183
7.127719833,1.7629580408927272,-7.4951387469716355,-0.1326770732963638,10.972762804745454
7.137710833,1.8030002281763635,-7.9657910857170915,-0.2381946671490911,11.30093145909091
7.147702833,1.85897320366,-8.45688348311709,-0.3385476918218184,11.657089793745453
7.157693833,1.9464616788254545,-8.904835856953454,-0.3210542392145457,12.049752090454543
7.167685833,2.082197581518182,-9.278271452753454,-0.19007648103272745,12.377146189436363
7.177676833,2.296850456209091,-9.598848548649817,-0.16609243565090928,12.713559929163639
7.187668833,2.6510229527727276,-9.609760303558911,0.05168484685818163,12.721093136072728
7.197659833,2.9329289457,-9.415715317158908,0.20856795778545434,12.602453052072725
7.207651833,3.1249255301363634,-9.155650375613455,0.04319043456727255,12.501921208327273
7.217642833,3.3386612490818184,-8.645390901068,-0.2941663309963638,12.31025610850909
7.227634833,3.5539882106999996,-7.755587903649818,-0.4981005217963638,11.730859909963636
7.237625833,3.5895154890272725,-6.585973141413454,-0.42043674036727285,10.858627911781818
7.247617833,3.557397498918182,-5.559415272958909,-0.21024388389454562,10.142720309781819
7.257608833,3.594929457918182,-4.879258302977091,-0.15175950138545471,9.840742082327273
7.267600833,3.508458244118182,-4.5459307899043635,-0.02550129673090925,9.705043120127273
7.277593833,3.3166516410272724,-4.458185802706182,0.16487739237818166,9.617506846618182
7.287584833,3.057683701009091,-4.457745539251636,0.3339554801781817,9.621134950927273
7.297576833,2.7953193047,-4.378460271777091,0.3940201365109089,9.759418847963634
7.307567833,2.599356378372727,-4.1844232589043635,0.2838893792072726,9.828566904872726
7.317559833,2.474692411718182,-3.9266991067043637,0.07280365829818165,9.789438517963635
7.327550833,2.3621973301,-3.6721508749952725,-0.125295673178182,9.758705775418182
7.337542833,2.1891575623254544,-3.470618093122545,-0.24325165819636382,9.825283737509091
7.347533833,1.978469646070909,-3.305659506948,-0.3000432106509093,9.9617415508
7.357525833,1.7216069482163636,-3.1814709721116365,-0.2783885737345456,10.08552070067273
7.367516833,1.392890517561818,-3.080253734184364,-0.17992941169818202,10.111054147763637
7.377508833,1.028504731889091,-2.926832352929818,-0.09006658957090927,10.121743737400001
7.387499833,0.6762618271436364,-2.7267587916152727,0.005151814301817998,10.169871329763636
7.397491833,0.3541548338890909,-2.489851258669818,0.12009451380181799,10.274175356963637
7.407482833,0.08162855094363637,-2.1892131893789086,0.24270871771090888,10.432278647618183
7.417474833,-0.15667087451090908,-1.8144430145607273,0.38150842923818157,10.618692876254546
7.427465833,-0.4184817945654546,-1.3318431876152725,0.5822705056563633,10.87794477098182
7.437457833,-0.7172746207836364,-0.7851539542334546,0.8673563926145453,11.237671505890908
7.447448833,-1.0399648153290908,-0.2567104681243637,1.2059727307963632,11.639026628672726
7.457440833,-1.3027090254745453,0.24751600876654545,1.5278283151109089,12.029642438963636
7.467432833,-1.4838199601654547,0.7236821869119999,1.785898409852727,12.36990300150909
7.477423833,-1.6442766580745456,1.1647086719301818,1.9833749144890906,12.650730350181817
7.487415833,-1.8107985345654547,1.5659411867847273,2.139898347234545,12.871874632781818
7.497406833,-1.98776866782,1.937003621039273,2.27838761672,13.040733406836365
7.507398833,-2.1683633624745453,2.2896079157665454,2.416239475912727,13.1715208712
7.517389833,-2.3399829319472727,2.621931642548364,2.5642202355490906,13.278820122309089
7.527381833,-2.4855310372563633,2.921653665602909,2.7137144087490905,13.382439183672727
7.537372833,-2.612403098565454,3.1841357928574547,2.8509385348036362,13.49173237730909
7.547364833,-2.721702219670909,3.4168355630574543,2.9507758244218176,13.61753444109091
7.557355833,-2.8196659232054544,3.650081920312,2.8776117119854545,13.807411650818182
7.567347833,-2.882595513216364,3.8787556061483635,2.744030389330909,14.024281236818181
7.577338833,-2.914372451198182,4.079367547221091,2.6933793169654545,14.17818457889091
7.587330833,-2.9345629878527277,4.25443995600109,2.694901551838181,14.308234910509091
7.597321833,-2.948470553070909,4.414352203704727,2.720163112838182,14.429494996345456
7.607313833,-2.9630699581981816,4.568266164958182,2.7436259055290906,14.548647380145454
7.617304833,-2.976373910034545,4.724912593872728,2.761357586983636,14.665501963527273
7.627296833,-2.9896463480345457,4.8920568267272735,2.767118758201818,14.771932960272729
7.637288833,-3.0078164404345453,5.0747111180363635,2.7593199173836362,14.85949961430909
7.647279833,-3.0324890339872725,5.285958878618183,2.756772891510909,14.917613842254545
7.657271833,-3.064444094110909,5.550380782454546,2.7925828813654543,14.921900811181816
7.667262833,-3.1113758562545453,5.894572751818182,2.8799518686563634,14.830936351854547
7.677254833,-3.1632905225636363,6.291141559254545,2.8995681715290904,14.598578993490909
7.687245833,-3.1694336618181818,6.6425880520545455,2.658622041256364,14.525584221490908
7.697237833,-3.2573069688181824,7.093488134927273,2.7032393372290904,14.14986786238182
7.707228833,-3.4671689074,7.4590721852,2.723678877552727,13.870019141545455
7.717220833,-3.7490461958181815,7.505448940290909,2.531595972261818,13.854438286454547
7.727211833,-4.046415214363636,7.357824137927273,2.4151534566254544,13.956970223545454
7.737203833,-4.465298006727273,6.953629040836364,2.596613299952727,14.360709416999999
7.747194833,-4.9056182864,6.040763402254545,2.808286336534545,15.221479576272728
7.757186833,-5.159202152763636,4.926376367981818,2.9945804770618176,16.160288609654547
7.767177833,-5.095205621381819,4.082264183436363,3.040304852970909,16.692261649472727
7.777169833,-5.0456970550363645,3.590184797290909,2.9682383984618177,16.95516471238182
7.787160833,-5.105431444690909,3.264264441418182,2.856799260214545,17.02572864401818
7.797152833,-5.184946869218183,3.035603289890909,2.7479204715054544,16.990877545654545
7.807144833,-5.202606353527272,2.882747366361818,2.632830682669091,16.985664081109093
7.817135833,-5.060142436527272,2.7861917521072725,2.514368262341818,17.078809239854543
7.827127833,-4.780183837581818,2.6760886388345453,2.4995162043472727,17.17056851372727
7.837118833,-4.445293161872727,2.5278055568709092,2.5732017316018183,17.24386778058182
7.847110833,-4.162494479745455,2.3558522549254546,2.6947833331836364,17.249626688581817
7.857101833,-3.986238955909091,2.1903707681981817,2.8509297853054543,17.20376944330909
7.867093833,-3.8402525113999997,2.047779334070909,3.011305432814545,17.140840443345454
7.877084833,-3.6769207056545454,1.9398087747763635,3.1310246244363635,17.041044671545453
7.887076833,-3.4926985738272727,1.912936289921818,3.199480782090909,16.960717204763636
7.897067833,-3.3104326014272725,1.9219128822309093,3.2212199458181816,16.90460132892727
7.907059833,-3.133731594263636,1.8907053992672727,3.1756073660363633,16.8162724992
7.917050833,-2.8869393751909094,1.8240827981399996,3.0752202388,16.748184496472728
7.927042833,-2.5564954218818183,1.6734595541036363,3.0230871045836363,16.700188537563637
7.937033833,-2.1766018634999997,1.425733843049091,2.9930365437290902,16.68927598047273
7.947025833,-1.807683879772727,1.1069101038854543,2.9326568181472723,16.67015427738182
7.957017833,-1.4915850600818181,0.7322704918854545,2.835849401510909,16.600896996836365
7.967008833,-1.2121482293,0.3056029931581817,2.684431600601818,16.470863635927273
7.977000833,-0.9548612255727272,-0.17501965629636373,2.4310429407836365,16.201336322745455
7.986991833,-0.7185879347727273,-0.6735821799145455,2.079442761801818,15.781113065527274
7.996983833,-0.5065608466472727,-1.166470087169091,1.6932887490745452,15.32900193709091
8.006974833,-0.31378803364181823,-1.6593018822963637,1.3548880295290906,14.913155275781818
8.016966833,-0.1562657343327273,-2.132549459969091,1.0831137623054543,14.563916493690911
8.026957833,-0.03570642804181821,-2.5745002196781823,0.8579581972545453,14.268908321581817
8.036949833,0.09340320853999998,-2.9707790053145455,0.6649253214090907,14.02636171170909
8.046940833,0.23388658323090908,-3.321260239823636,0.4923907344636361,13.824892531672727
8.056932833,0.3655106820127272,-3.6402200596781817,0.3403858891181816,13.646927971454547
8.066923833,0.49477312228545456,-3.9313298782963635,0.21714121315454524,13.48146054130909
8.076915833,0.6236634563945455,-4.19731313746,0.11318842988181799,13.325955898836364
8.086906833,0.7467759015581819,-4.443470295769091,0.028692604874545252,13.177605389345455
8.096898833,0.8651994644854545,-4.676329599278183,-0.0290656331909093,13.034481514036363
8.106890833,0.9840285424563636,-4.924020418405455,0.06424220361272708,12.854647883599998
8.116881833,1.0843736414927272,-5.180936038896364,0.19717346339636344,12.664370624272728
8.126873833,1.1651849897472728,-5.428088999278183,0.22717617076909072,12.540486822872726
8.136864833,1.2356909712381818,-5.671504642678182,0.19824857034727253,12.442856276890907
8.146856833,1.294673191010909,-5.925558603932727,0.13939507435636345,12.365922702254544
8.156847833,1.3427802222436362,-6.194324255441819,0.07043630864909071,12.311845554054546
8.166839833,1.3829844544763636,-6.482173241405455,-0.0017601454054547352,12.286857222545454
8.176830833,1.4214275106654546,-6.788518884132727,-0.07408214715090929,12.295730204509091
8.186822833,1.4626773792016363,-7.115091736114545,-0.14539528360545473,12.343018118727274
8.196813833,1.509328057708909,-7.465555078005455,-0.22588080373272748,12.427855939418183
8.206805833,1.5624371932252727,-7.84146229186,-0.31891851511454566,12.542969065927274
8.216796833,1.6298498594252726,-8.242346589041817,-0.41909254322363654,12.693374531618181
8.226788833,1.7051788742252727,-8.632611800296365,-0.4104861009327274,12.9167076158
8.236779833,1.7513233340252727,-8.923192966914545,-0.10124952975090926,12.925560766345455
8.246771833,1.9148639172616364,-9.294039649423636,-0.070633529858182,13.233626928545455
8.256763833,2.2141347692434543,-9.549827575878183,-0.01931255528000017,13.4420765252
8.266754833,2.528407120752545,-9.413708988241819,0.21550173821090893,13.322484558654546
8.276746583,2.7943972159343637,-9.03803176135091,0.3187450894290907,13.03001243301818
8.286737583,3.157391013498,-8.422082088347272,0.07447555324545437,12.474835102290907
8.296729583,3.570860070916182,-7.291735950656364,-0.30958092508181845,11.65994407610909
8.306720583,3.8591309281889092,-6.071606986129091,-0.5658592841000002,10.820698462836363
8.316712583,3.8406601269161817,-5.221312646783637,-0.41560623533636387,10.26074195610909
8.326703583,3.8277739267343636,-4.710658187420001,-0.19432961751818198,10.027324932472727
8.336695583,3.937781911061636,-4.367839994929091,-0.0006517884818183555,10.020444143018182
8.346686583,4.044972398607091,-4.167181265474546,0.22606372860909074,10.076250498836364
8.356678583,3.998814212461636,-4.094316740454546,0.4900080212090907,9.985638746745455
8.366669583,3.763414113007091,-4.052888228854545,0.668951637572727,9.848642334763637
8.376661583,3.411648489879818,-3.9310886856,0.5932183516036363,9.828514546763637
8.386653583,3.046289833879818,-3.737693877727273,0.36164645613090896,9.815115462763634
8.396644583,2.7620701721161818,-3.5289198508363637,0.09837844182181804,9.841629921127273
8.406636583,2.566858740643454,-3.3521282543454545,-0.15901665034181833,9.926527182400001
8.416627583,2.371377933225273,-3.2157088221272727,-0.3633476651054547,10.03852923690909
8.426619583,2.1324773078434545,-3.1431062523600004,-0.4508559889054547,10.197861785618182
8.436610583,1.8228920631434546,-3.177805139687273,-0.4876928946872729,10.370614898036365
8.446602583,1.5088375788161819,-3.254479040650909,-0.4715678260872729,10.513572366054547
8.456593583,1.2176164822525453,-3.288448695141818,-0.3790388649963638,10.665783697054545
8.466585583,0.8794484845616363,-3.2536939403418184,-0.24353591472363648,10.787041799236363
8.476576583,0.46517538183436363,-3.1154938821054543,-0.12731699927090923,10.902206307054545
8.486568583,0.015603999107090871,-2.848615541778182,-0.02806298268909105,10.995599791054545
8.496559583,-0.4071517761656364,-2.4600642449781818,0.07604220027454534,11.112947039054545
8.506551583,-0.7607058606020001,-1.9631588009781817,0.20741952538363623,11.302279366690907
8.516543583,-1.0727842517474546,-1.4046332297054547,0.3972688846563635,11.55973194650909
8.526534583,-1.358946028911091,-0.8928281020690912,0.6529069575654544,11.865252539145454
8.536526583,-1.5664253440383635,-0.4498888439054547,0.9393045370927271,12.19751560109091
8.546517583,-1.6946888459820002,-0.013117749741818391,1.2052770905472725,12.510656233345454
8.556509583,-1.8244823197510909,0.4163670972036361,1.4244047104563635,12.791853826654545
8.566500583,-1.9807277466238182,0.8133501001490907,1.6028661973163636,13.032169889472726
8.576492583,-2.138265227423818,1.1719202876763635,1.7568801246945451,13.237144192309092
8.586483583,-2.306223339551091,1.4983854871309088,1.891660295321818,13.411072899636364
8.596475583,-2.475723840842,1.7964352703672724,2.0137471999945453,13.561357946945453
8.606466583,-2.628500337932909,2.0759479447672726,2.118846638194545,13.69912400770909
8.616458583,-2.7715164181329097,2.3382758331127276,2.197770886630909,13.832955810763638
8.626450583,-2.908042142114727,2.5833854786763633,2.2560982926854543,13.962567000327272
8.636441583,-3.029715045296545,2.823146112621818,2.2604662876963637,14.093975451636362
8.646433583,-3.125651545732909,3.0600746104581815,2.2165903123436363,14.233199956036364
8.656424583,-3.2020704443220005,3.284588225603636,2.1583130913581816,14.364287675927272
8.666416583,-3.2784004280129087,3.4932973696581815,2.0942448730472725,14.475724581345453
8.676407583,-3.366291808231091,3.684390437021818,2.0657456761836364,14.551482189545455
8.686399583,-3.457651342140182,3.875206059312727,2.074684846316727,14.611259971272728
8.696390583,-3.5380333027674546,4.086084531021818,2.1074322201076363,14.656087701018182
8.706382583,-3.6121827959638177,4.31475909924,2.157417578996727,14.683337330672725
8.716373583,-3.688359327451091,4.564189837167272,2.2298042057785454,14.69237073650909
8.726365583,-3.769662942149273,4.836160177476364,2.3347980166876363,14.68477262630909
8.736356583,-3.8525267109218184,5.13208085124,2.466050620578545,14.650724523509089
8.746348583,-3.939673695392728,5.443611751567272,2.5996672643967274,14.56919966770909
8.756340583,-4.016777047781818,5.716555515112727,2.569775787687636,14.428640773745453
8.766331583,-4.0758685892181825,5.925627005839999,2.3378038575421813,14.441807637927274
8.776323583,-4.281370546127272,6.016886201476363,2.097777419760363,14.517753218472727
8.786314583,-4.4024803784,5.963879150385455,1.6746924978512725,14.766936528290909
8.796306583,-4.515768889972364,6.06488988584,1.640726792894909,14.648344626836362
8.806297583,-4.7336186194814545,6.117245706021818,1.826033072985818,14.6552785652
8.816289583,-4.97565138042691,5.888589508749091,2.0467369294585454,14.908033066654546
8.826280583,-5.129543802674181,5.380180741676363,2.3031263855312725,15.396256762472728
8.836272583,-5.023283787874182,4.637459818672728,2.511454660624,16.060640897745454
8.846263583,-4.710802183292364,3.8291339228,2.608899338714909,16.631760576472725
8.856255583,-4.488040702237818,3.2339664237272725,2.5669705499694544,17.007010323745455
8.866246583,-4.430083972601454,2.8527855636545456,2.5250066380603635,17.157235946836362
8.876238583,-4.443296468783273,2.726761173210909,2.3898037030967276,17.12279885829091
8.886230583,-4.564965055619636,2.749948944756363,2.077817703314909,17.14794934410909
8.896221583,-4.769203843823273,2.7059615958836365,1.8783608637330909,17.03292677289091
8.906213583,-4.8767740708414555,2.567697590374545,1.8002270724876361,16.948091044763636
8.916204583,-4.830349761965091,2.387320906501818,1.8351855708694542,16.96204729270909
8.926196583,-4.669988331148727,2.2127508692472726,2.027725090542182,16.92406435152727
8.936187583,-4.468341996348728,2.069184342792727,2.3073761313421817,16.8784175028
8.946179583,-4.295211320312364,1.972278788621818,2.597137326869454,16.82897639370909
8.956170583,-4.094747600803273,1.94761089544,2.781591784524,16.67094379789091
8.966162583,-3.789074079512364,1.9581855211672725,2.7755018828512723,16.49463920389091
8.976153583,-3.3802530058032727,1.9307878394036364,2.6034152856512724,16.386555498254545
8.986145583,-2.8711316014396364,1.8332069849672727,2.427899604778545,16.297677276072726
8.996137583,-2.3515236939850905,1.6471813485672726,2.339678181142182,16.21857506570909
9.006128583,-1.8759249508941818,1.3938556739854544,2.3401387982149093,16.17569701661818
9.016120583,-1.4072495663487274,1.0878883673854542,2.3436856341785455,16.173710873527273
9.026111583,-0.9480322338032726,0.7715155471672727,2.2422841399385454,16.141257632436364
9.036103583,-0.5553299455669091,0.4566162359854545,2.0544690429385453,16.017965563709094
9.046094583,-0.2145270650578182,0.12551559776727264,1.8250722479021817,15.808037070654548
9.056086583,0.08775861126945457,-0.2539508055600001,1.5786110555567272,15.493976094218182
9.066077583,0.3563162401058182,-0.6841175866145455,1.3250782247603632,15.096422687854545
9.076069583,0.5951355360694546,-1.1146349455054545,1.0773065173821816,14.697202410200003
9.086060583,0.7953453800694545,-1.5324258926145453,0.8325356195839998,14.327702606454546
9.096052583,0.9717967642876364,-1.9483960699236365,0.5947842325294543,13.989110866672728
9.106043583,1.1407116616330908,-2.3478936627599998,0.367948666765818,13.689723640527273
9.116035583,1.313367405542182,-2.715391814978182,0.16032473669309075,13.434483342854545
9.126027583,1.4906139579421818,-3.0460650961054543,-0.022528718761454698,13.216081190218183
9.136018583,1.665488911560364,-3.340922607887273,-0.18030735201600012,13.021076200454544
9.146010583,1.8286379971058182,-3.6000799870327276,-0.31171164067054563,12.83665436098182
9.156001583,1.9781903926330908,-3.8281549392145457,-0.41595068767054555,12.652041580254545
9.165993583,2.120953745542182,-4.0293492417236365,-0.483760589785091,12.461063693163636
9.175984583,2.2580484354876362,-4.2033740846109096,-0.5296528206432729,12.274980779418183
9.185976583,2.3733520091858185,-4.364510367165455,-0.5315097049723637,12.095548849418181
9.195967583,2.4512704421623637,-4.522813057129091,-0.47685350782418195,11.913472570254546
9.205959583,2.502456069644182,-4.667094304692728,-0.40095924003509104,11.75290236158182
9.215950583,2.5346085955532724,-4.7931761892199996,-0.32553290365872745,11.617609141472727
9.225942583,2.566856925426,-4.899471978365455,-0.2744723215496365,11.517009551672727
9.235934583,2.612037712262364,-5.008193033101818,-0.2503145926063638,11.422970138654545
9.245925583,2.6632557971169093,-5.137411470418182,-0.2422121484063638,11.326578803
9.255917583,2.7219542674805455,-5.289591115618182,-0.24512251229727286,11.237644624127274
9.265908583,2.790927890426,-5.476469371745455,-0.27036206118818196,11.168615119909092
9.27589975,2.8710552420132727,-5.716394971581818,-0.34270871693363647,11.1405760396
9.28589075,2.9748559285587275,-6.021129121709091,-0.4490159280790911,11.180036658218182
9.29588275,3.1093537956132726,-6.388496147490909,-0.549416751079091,11.3157411442
9.30587375,3.240428984376909,-6.760301188672727,-0.4955888572245456,11.556067243072727
9.31586575,3.3476940611405452,-7.093078308672728,-0.24725326817000015,11.668708413254546
9.32585675,3.581524720067818,-7.324044028672727,-0.02423482855181832,11.73614081398182
9.33584875,3.7064761145587273,-7.390396913581818,0.3218632905936363,11.6146911278
9.34584075,3.8311593610401813,-7.507184840309092,0.3154902879936362,11.752446570709091
9.35583175,4.071751633822,-7.46745294630909,0.14030785581181804,11.684243503072729
9.36582375,4.333652095967454,-7.131705951145456,-0.06699152455181834,11.384829114527271
9.37581475,4.504054652542,-6.539087508509091,-0.30557602291545466,10.890471037436363
9.38580675,4.4163932805601815,-5.722783777872728,-0.48502698629727287,10.268892185436366
9.39579775,4.130225400905636,-4.871904355472728,-0.5715097510063638,9.734981661436365
9.40578975,3.9267226070874544,-4.235125497036363,-0.6142142207154548,9.441200119254544
9.41578075,3.8324807999056367,-3.832183671090909,-0.5958184523572729,9.271811163072726
9.42577275,3.787155969651091,-3.6772753961200007,-0.4712585555390911,9.272684107072727
9.43576375,3.841713170778364,-3.639172164156364,-0.23363949094636383,9.221154633072727
9.44575575,3.9744534817638177,-3.4967058178472725,-0.15772838318272744,9.339855938472727
9.45574775,4.073616401382,-3.243583743265455,-0.18966015277363657,9.505235387781818
9.46573875,4.054119477396545,-2.986750324010909,-0.2766298895372729,9.5518536322
9.47573075,3.9562193437256363,-2.785400836410909,-0.3817031428463638,9.553340977981819
9.48572175,3.8383138547256364,-2.6335196118290907,-0.5203348637918184,9.52245109529091
9.49571375,3.737004613616546,-2.5301818759127275,-0.6950509644300003,9.495326693400001
9.50570475,3.5970740559801815,-2.5033832148218185,-0.8079809194300002,9.582638271399999
9.51569675,3.3389743105074547,-2.5313793856945455,-0.7685654606500002,9.704486636672726
9.52568775,2.947191066252909,-2.5304363254945454,-0.6341887053645455,9.786763102672728
9.53567975,2.4467827360710905,-2.458401966876364,-0.5230999960683638,9.855658140490908
9.54567175,1.9206252242529092,-2.2973229444945455,-0.5273968118683638,9.928646467036364
9.55566275,1.438853331162,-2.057117773330909,-0.6164561415138184,9.964759622854546
9.56565475,0.962746922252909,-1.7789734643309092,-0.6644074986047275,9.952517488490908
9.57564575,0.4988611302529091,-1.4939151949127274,-0.6138815433647274,9.9571179154
9.58563775,0.10110148947109097,-1.2205661342945455,-0.4738248878556365,10.042218388490909
9.59562875,-0.25462918376527266,-0.9502251046218183,-0.2991389800192729,10.201007929
9.60562075,-0.5768386415470907,-0.6121965791127275,-0.19506427167381837,10.447999951618181
9.61561175,-0.8836210287470908,-0.23882688678545472,-0.14147921267745472,10.757587871072728
9.62560375,-1.1592131876198182,0.09634315828727257,-0.03185966946290926,11.048561108727272
9.63559475,-1.4140556618379998,0.4152888172145453,0.10404678918981802,11.32426000429091
9.64558675,-1.6576369409652727,0.7354497081599999,0.24630053598981802,11.580347950436362
9.65557775,-1.883464595547091,1.0723427151781817,0.38860916688072716,11.821559653309093
9.66556975,-2.0926876248198183,1.4360165544872725,0.526051285098909,12.063154577527271
9.67556175,-2.300768235728909,1.7967373585236364,0.6623451802625453,12.302459459981819
9.68555275,-2.5021578246016367,2.134812555578182,0.7944728651716363,12.535283458836364
9.69554475,-2.683996046601636,2.441085352541818,0.9152727498261816,12.762704524854545
9.70553575,-2.8479911073107274,2.71309590036,1.0180174239352726,12.989414239581818
9.71552775,-3.001761514110727,2.9535696075054547,1.091778351049818,13.219527037399999
9.72551875,-3.1481703720743637,3.1621894592654547,1.1550535407443636,13.442665418054544
9.73551075,-3.276330186936182,3.3459927283654545,1.2185843893061818,13.65327589678182
9.74550175,-3.3816172463490908,3.51542181922,1.2653213567761816,13.854469157581818
9.75549375,-3.467203388376364,3.6762570340381817,1.2930947566961815,14.03725734661818
9.76548475,-3.5271245487218184,3.8314811756018177,1.3173742299925455,14.202283583181817
9.77547675,-3.5647726387218186,3.985858257601818,1.3288064083561817,14.347774389090908
9.78546875,-3.5866373501581816,4.146943626865454,1.3217366355925453,14.478280277690908
9.79545975,-3.6008877961036365,4.317730143509091,1.291896912048545,14.593797966072728
9.80545175,-3.6150896038490905,4.500047497,1.2319986089939998,14.689299812436364
9.81544275,-3.6324024652127274,4.7064260366,1.1528469557030907,14.756321982345455
9.82543475,-3.656619867654545,4.958707440981818,1.0786458927212728,14.774938321145454
9.83542575,-3.7019796111818177,5.262587770054545,0.9994209671758181,14.7251501342
9.84541775,-3.7830490820909093,5.6475378517090915,1.0083874810067273,14.562130998781818
9.85540875,-3.872062149636364,6.035918175818181,0.9695424712794544,14.298547967945456
9.86540075,-3.9272122690545457,6.2406227745454546,0.8018099633158181,14.175074901036362
9.87539175,-3.997469775770909,6.457143001454545,0.830594851824909,13.950568992309089
9.88538375,-4.153889003152727,6.687795523272726,1.152448501224909,13.808443251763636
9.89537575,-4.4340991865890915,6.512248161090909,1.5011200543521819,14.070510387399999
9.90536675,-4.642690083989091,5.795578476363636,1.792296254897636,14.7806191074
9.91535875,-4.361911104716363,4.650780785745454,2.0254231694430906,15.917944127581817
9.92534975,-3.591022209134546,3.4834936512909094,1.8063326076067272,17.249671847400002
9.93534175,-3.349445770243636,2.748480974472727,1.3263731813521817,17.946798581218182
9.94533275,-3.568296176298182,2.267790263527273,1.3513034869521818,17.984613852672727
9.95532475,-3.7839232038127277,2.043870215181818,1.5888001533703635,17.701375278018183
9.96531575,-3.9693667233036365,2.0686802488727274,1.6580640560121815,17.664129499290908
9.97530775,-4.162018286267273,2.0415256199090908,1.6852788262303637,17.586547574454546
9.98529875,-4.275599961267273,1.9653402591272724,1.771021482274,17.490242545090908
9.99529075,-4.184347718412727,1.8580066422909092,1.889882786383091,17.497810169454546
10.00528275,-3.9636755857945456,1.7254042830363636,1.9978407130194547,17.58608805127273
10.01527375,-3.758236789430909,1.5917122367090908,2.121648955583091,17.6274142018
10.02526575,-3.6413550309581817,1.416497230290909,2.2403710986194545,17.62976255889091
10.03525675,-3.5757226186672724,1.1997633461999997,2.338232204764909,17.651114598854548
10.04524875,-3.4964049469945455,0.9889164600909089,2.4112214668394545,17.629513682345454
10.05523975,-3.366419174267273,0.850514694181818,2.446107040488546,17.49623995558182
10.06523175,-3.2103448687945457,0.7998030792163635,2.4160387652358177,17.34614347587273
10.07522275,-3.0175696424854546,0.8085329934527271,2.316001357314,17.210361161345453
10.08521475,-2.7213373439012725,0.8165729255981817,2.1946699846723634,17.0443937798
10.09520575,-2.3003596536467272,0.7388295582472727,2.1202793469996366,16.883631268163636
10.10519775,-1.823245376192182,0.5349486940472727,2.084768462154182,16.821082253072728
10.11518975,-1.349064338374,0.22642820597454538,2.0644509611996362,16.840984885618184
10.12518075,-0.9308546774649092,-0.14962646397090915,2.068230643926909,16.869451042163636
10.13517275,-0.5761688165740002,-0.5251312299527273,2.067770117236,16.83938678689091
10.14516375,-0.2529151631194548,-0.8401914034800001,2.0254906869087272,16.686060102254544
10.15515575,0.03712514671690888,-1.160243312970909,1.9941074472723637,16.4017420912
10.16514675,0.30281025112054527,-1.47896975442,1.9557244738850907,16.025109295490907
10.17513875,0.5233444533205454,-1.7443356539836365,1.8363494201287272,15.675733322454546
10.18512975,0.7104794766296363,-1.996513817852727,1.7015457543214545,15.360612359745454
10.19512175,0.8772147765387271,-2.2602008647981817,1.5819869920196363,15.066024860963635
10.20511275,1.0284178835387272,-2.5535277138527275,1.4735939341869089,14.782085685381817
10.21510475,1.176550830266,-2.885420341398182,1.367142290157818,14.496736597381819
10.22509575,1.3446715694003635,-3.22513549098,1.249955966176,14.222171763236362
10.23508775,1.531013199964,-3.5616464940709096,1.1266335634487272,13.979789512963636
10.24507975,1.7198199794185454,-3.8986629834890913,1.0066728419396362,13.781290320854547
10.25507075,1.908516017945818,-4.244476555707273,0.8921720218305453,13.631285072781818
10.26506275,2.0973959832912725,-4.602730355652727,0.7869225812850908,13.525949927018182
10.27505375,2.2873815029639997,-4.974826067270909,0.695336430557818,13.462144750654547
10.28504633,2.480401653127636,-5.366466851998181,0.6131914068487273,13.441550828836363
10.29503733,2.6707018752730907,-5.78127915308909,0.5298705399578181,13.464594933927271
10.30502933,2.860342589964,-6.229001476361818,0.44405406017599985,13.53572870229091
10.31502033,3.056403908891273,-6.698490623143636,0.3827025406305454,13.644581818836363
10.32501233,3.2733996525458178,-7.17309163978,0.3781859785032727,13.789893710836365
10.33500433,3.4968565695094544,-7.623309097325455,0.4333150160487272,13.951571751763636
10.34499533,3.7094188266912727,-8.023422082943636,0.5258002346654544,14.098230336909092
10.35498733,3.9106337167094543,-8.342000313434546,0.6533117660836363,14.203949227163635
10.36497833,4.092996572164,-8.566178064525454,0.806683807392727,14.254696371563636
10.37497033,4.242639875945819,-8.705761807861817,0.9645804454472727,14.25097556441818
10.38496133,4.348923683618546,-8.762120876334546,1.1216271109563636,14.213276197927271
10.39495333,4.423232465582181,-8.74885553208,1.1431860581927271,14.23077006961818
10.40494433,4.476616449473091,-8.596950833643636,1.0956008643745456,14.374700078818183
10.41493633,4.516003368527636,-8.214903586189092,1.170549794229091,14.322818902818183
10.42492733,4.573025388989454,-7.825677286916363,1.1963155778999999,14.245675441909091
10.43491933,4.704995680134909,-7.43508137837091,0.9893141064672727,14.092949338327271
10.44491033,4.903767127698546,-6.715810235334546,0.6767587206909088,13.632067744872728
10.45490233,4.9602231004803645,-5.59037050697091,0.3244663164945453,12.812994544327273
10.46489433,4.505481478116727,-4.149925983516364,0.003278122907272597,11.625170104327275
10.47488533,3.5647576836221817,-2.7727778247890904,0.1501268509763635,10.28930646069091
10.48487733,3.1645660446823634,-1.9299183582436366,0.5927138940727271,9.598032285781818
10.49486833,3.204767691847818,-1.44092515388,0.6955809929218181,9.471372589963636
10.50486033,3.2115779758132725,-1.2009213501527274,0.6768088034181816,9.609117166618184
10.51485133,3.2197404868660002,-1.1539365377890909,0.5996412911399999,9.641778965163638
10.52484333,3.2016762795569087,-1.0379601303527273,0.3788207667763635,9.777205962909091
10.53483433,3.1254955327387273,-0.9303289541163636,0.2543577423763635,9.849310663181818
10.54482633,2.876334053738727,-0.8354208194618182,0.1885267931854544,9.791932487181818
10.55481833,2.5482623052296365,-0.7153310340254546,0.14189650551272712,9.680122975363638
10.56480933,2.3253162275932726,-0.5546571067709092,0.07241353425818166,9.669063954090907
10.57480133,2.2330617241750907,-0.3277297397345455,-0.033737031323636514,9.70401477949091
10.58479233,2.1911046030114547,-0.06150570277090918,-0.13517486866909106,9.710747069854547
10.59478433,2.150612687775091,0.1927847517745454,-0.1844794016872729,9.745219891236363
10.60477533,2.1002621224296365,0.3808958135745454,-0.1513558585727274,9.853171632090909
10.61476733,2.052486638975091,0.4962474301218181,-0.05585192451818197,9.949444898163636
10.62475833,1.9872643185023637,0.55914683254,0.09370576539090894,10.008342772509092
10.63475033,1.8335225417909091,0.6199037088490909,0.27969521282727255,10.078037572963636
10.64474133,1.550889623009091,0.7436039586545453,0.4468093378454544,10.137739691145455
10.65473333,1.1747301284454545,0.9567123882909091,0.5723707244999998,10.124415687145454
10.66472433,0.7692528433545455,1.252177744818182,0.6393051628727272,10.048493053509091
10.67471633,0.41378647482727265,1.6029335325818181,0.6405185611090908,9.956973639327273
10.68470833,0.12733468635454545,1.9398880203818183,0.6113799931272725,9.903975685690908
10.69469933,-0.11545317871818184,2.1920643556363637,0.6067693466363635,9.945638097236365
10.70469133,-0.31465776940909096,2.376881723381818,0.6376958283636361,10.073416574290908
10.71468233,-0.4627660302490909,2.535036914667273,0.6918920117690908,10.258907579818182
10.72467433,-0.5729049391036364,2.684975407158182,0.7590245538163635,10.440259652490909
10.73466533,-0.6603440425036364,2.8394096855545454,0.8256390006599998,10.601410126654544
10.74465733,-0.7386514535400001,3.006396617663636,0.8856354675072725,10.75302145961818
10.75464833,-0.8194571246672728,3.191020198063636,0.9461886321399998,10.899460410836364
10.76464033,-0.9127144202672728,3.3936138243181815,1.0112181858599998,11.040789322472728
10.77463233,-1.0261354350561818,3.6096701968454545,1.0831610940236363,11.174569150800002
10.78462333,-1.1579223628561819,3.841443491681818,1.1602869900781816,11.291181629072728
10.79461533,-1.299818738456182,4.093520424263636,1.2383048735690907,11.385080885181818
10.80460633,-1.4515977537107274,4.370875986390909,1.3195591590236362,11.451629671618182
10.81459833,-1.614041245128909,4.672285207663636,1.39860737506,11.490488636836364
10.82458933,-1.7962970221289092,4.993454562663636,1.4296012326563634,11.501210384836364
10.83458133,-2.0566945318925454,5.283813981627273,1.1025763908381816,11.7025031992
10.84457233,-2.287188248638,5.537183425318181,0.8321386057654544,11.79974367010909
10.85456433,-2.4597488105107272,5.831714524372727,0.9305836680381817,11.616183850672726
10.86455533,-2.6572017242380004,6.087120808336364,0.9774574576927271,11.400135499490908
10.87454733,-2.8912913138198184,6.427441240427273,0.9383808424054544,11.163594040781819
10.88453933,-3.145993391074364,6.7590650767545455,0.8732446434454545,10.928043505054546
10.89453033,-3.348513012856182,6.9892399023018195,0.788703514472727,10.660343595745456
10.90452233,-3.502694755334364,7.059107091429091,0.7327229734727271,10.5169414306
10.91451333,-3.5496516286070907,6.900331988974546,0.7703708349090908,10.620604022781817
10.92450533,-3.412466519407091,6.544796346856364,0.8822999804181817,10.967158829727273
10.93449633,-3.086327573279818,5.968290151529091,1.0478773721999999,11.557122494618183
10.94448833,-2.5322909838616368,5.132288331438183,1.277597680441818,12.382958519254545
10.95447933,-1.7907693939343636,4.242462838165454,1.5755091717327272,13.204268118709091
10.96447133,-1.2278856695707274,3.673976460529091,1.80769570526,13.707801114527275
10.97446233,-0.971281089098,3.387148525983636,1.8793861000799998,13.895741948163636
10.98445433,-0.8018291356616366,3.1703303888381815,1.856228053650909,13.94365854029091
10.99444633,-0.6660447615525456,3.018845945674545,1.7335454639,13.97116343229091
11.00443733,-0.5345385692252729,2.9242213796745458,1.5267473919145451,14.051562454472727
11.01442933,-0.35093945958890926,2.8423595418563634,1.3602535820654544,14.141249125563638
11.02442033,-0.1348709454580001,2.6980625599836365,1.3062368018690909,14.184787609018183
11.03441233,0.014275635027272606,2.4840106979836363,1.2762700555363637,14.147961475636365
11.04440333,0.04224387913454533,2.218110309710909,1.2732064441036361,14.037306490290911
11.05439533,0.018643942665454428,1.9281027017836363,1.3222967338072726,13.960399788854543
11.06438633,-0.012565007423636487,1.6384745888018182,1.4326369250854545,13.900644121872727
11.07437833,-0.0005680411872728558,1.3433026775836365,1.689454610030909,13.757588612800001
11.08436933,0.015966693976363508,1.0972941980563637,1.8252341655036362,13.645507013072727
11.09436133,0.052624356025454413,0.8837534890927274,1.8837728713127273,13.521740437690909
11.10435333,0.12459282182545442,0.667826616510909,1.903484481130909,13.384757019418181
11.11434433,0.2557591739890908,0.4270865527109092,1.8905076889945451,13.294515583327273
11.12433633,0.44594253686181806,0.1508325528381819,1.8611106418636363,13.272040136836365
11.13432733,0.6812435632254544,-0.16058769697999994,1.8275788587890909,13.310136283381818
11.14431933,0.9454001735890908,-0.4931129720345454,1.8031785913345453,13.387040206218181
11.15431033,1.211016929370909,-0.8174915978890909,1.7690892151054545,13.455901299218183
11.16430233,1.4618166386799998,-1.1156225617436362,1.6916602153418179,13.487064886672725
11.17429333,1.6989146526072727,-1.3882778874163635,1.5674605070145453,13.484260420490909
11.18428533,1.9335593236981816,-1.6411499562709089,1.4347388433418182,13.449143126563635
11.19427633,2.1671927135163638,-1.8840717757254546,1.3201565077418183,13.38977348089091
11.20426833,2.401983766970909,-2.126774771107273,1.212569100541818,13.321826753218183
11.21426033,2.6316150672436365,-2.383317286070909,1.1178912079599999,13.260925693618182
11.22425133,2.8497934581163635,-2.655253244761818,1.0490398130872727,13.209806794163635
11.23424333,3.0488609953890906,-2.935706268398182,0.9925214771018179,13.160317169254546
11.24423433,3.2325732393890907,-3.2208279003799998,0.9247718724054546,13.110594503072727
11.25422633,3.4094736791345457,-3.5023677513072724,0.845194152450909,13.053135388563637
11.26421733,3.5745681173890906,-3.762280261161818,0.7696643283181818,12.969158883927273
11.27420933,3.7297814415890906,-3.98216331738,0.7147119603981817,12.843090711563635
11.28420012,3.8858856741527275,-4.151698444816364,0.6921338727072727,12.692381725181818
11.29419213,4.047127174716364,-4.27663662458,0.6898971798163634,12.562477273509092
11.30418413,4.2057565433163635,-4.365003085743636,0.6914942829799999,12.456005072127272
11.31417513,4.359391289389091,-4.422210330052727,0.6954594925436363,12.375434968545454
11.32416713,4.513066272298182,-4.452533777798181,0.703098805361818,12.321669800018181
11.33415813,4.67002173188,-4.460144832616364,0.7158840932345454,12.2928415264
11.34415012,4.830509760225454,-4.448254689689091,0.735195421270909,12.286918720218182
11.35414112,4.995342742880001,-4.420997096507273,0.7626605320709089,12.299131419854547
11.36413312,5.160267149425454,-4.379078226743636,0.7865826341618182,12.322175075490907
11.37412412,5.313703212443636,-4.295901669216364,0.7965943909545453,12.369165568036363
11.38411613,5.519828700425455,-4.155154616907273,1.1569078567358182,12.192398516581816
11.39410713,5.679988439498182,-3.9655737245981815,1.4947666535903636,12.0710502984
11.40409913,5.763030226750909,-3.785456965470909,1.4722656321903635,12.186053906018183
11.41409113,5.846137050992727,-3.541421921252727,1.4724440706085453,12.302194002109092
11.42408213,5.924762276801818,-3.3697065902527275,1.4952995342594544,12.41396992009091
11.43407412,5.990772807256363,-3.2048319913072727,1.4743757979685452,12.524618197636364
11.44406512,5.989136434710908,-2.9786277015818183,1.4307354773776362,12.701536786945454
11.45405712,5.933586057425455,-2.663903434709091,1.3463960680503637,12.806504637545455
11.46404812,5.786618992352727,-2.2070829716181817,1.1841730219776363,12.716915149545455
11.47404013,5.485485004825454,-1.6338468050727273,0.9799111731739998,12.432481983363635
11.48403113,5.031492265843636,-0.9060145092545455,0.7543992681285453,11.937990888636362
11.49402313,4.386103709334545,0.011269934018181712,0.5180483914230908,11.189253501727272
11.50401513,3.560545909461818,0.9130667827454545,0.33263482295945446,10.347584711545453
11.51400613,2.882638549498182,1.4942249696545453,0.23169444678854534,9.812324092818182
11.52399812,2.5085754412072725,1.8169960258363635,0.18202320032490896,9.655888086454546
11.53398912,2.231294181261818,2.0467069014,0.20098141633763625,9.623512226272727
11.54398112,1.9869730486800001,2.1930275408363635,0.32863509621036346,9.597727249727273
11.55397212,1.7538575999163635,2.273430360072727,0.5389887191685453,9.514442915363638
11.56396413,1.4754571616436365,2.3345039853636367,0.7157140308212725,9.41957120609091
11.57395513,1.1726464797345455,2.454180255763636,0.7834101673830909,9.369964576272727
11.58394713,0.93997576488,2.6417668754909087,0.8271212951103635,9.401178449109091
11.59393913,0.8297992956436364,2.878924722381818,0.8453359114030908,9.506020522272728
11.60393013,0.7740717743163636,3.1339654278545455,0.8131963158212727,9.572434521709091
11.61392212,0.7327262665890909,3.3790820688,0.7440379182030908,9.61277125050909
11.62391312,0.6822564180436365,3.5944990961272727,0.6636713198030908,9.657108974890907
11.63390512,0.6045053111163636,3.7740831846,0.5969458928030907,9.726910273872727
11.64389612,0.5020143158127273,3.9323590305272726,0.5610833431121818,9.824965088345456
11.65388813,0.36922587694000003,4.093726139909091,0.5617086656212725,9.938542618727272
11.66387913,0.18492920906727275,4.283133444363637,0.5919068447394543,10.008478076945455
11.67387113,-0.04625052960545451,4.514738807163636,0.6388620173430908,10.015336202290909
11.68386213,-0.3094099026418181,4.7894912845818185,0.691341048926727,9.965773475036363
11.69385413,-0.5880880943327272,5.0931259242363645,0.7286342009812725,9.877255927618181
11.70384612,-0.8564402520054544,5.392770392,0.762933649064909,9.791445920563635
11.71383712,-1.100442583750909,5.656562890909091,0.8339181454103635,9.73062287529091
11.72382912,-1.2810085579509092,5.831210494163636,0.8268935981921817,9.65472761258182
11.73382012,-1.3026011984418182,5.7282127472,0.42712776710127265,10.013029281963638
11.74381213,-1.3958928224963638,5.533253553999999,0.5382440912103635,10.19178024818182
11.75380313,-1.4940790550963636,5.299419360254546,0.8264539886103636,10.489085040763635
11.76379513,-1.4339352008781818,4.885762926145454,0.9786114781921816,10.916625386909091
11.77378613,-1.1193656832236363,4.365304089436363,1.090643003174,11.528426906363636
11.78377813,-0.6361009161872727,3.9278042196363634,1.1086979293594545,12.158658212545456
11.79377012,-0.29258365184181817,3.7268783362545457,1.0380639795649091,12.524066868363636
11.80376112,-0.1945503930236363,3.7207491997636364,1.015514693392182,12.57795193141818
11.81375312,-0.1119841837327272,3.8739184277454544,1.0117276950049088,12.57054698270909
11.82374412,0.005552011067272792,4.088146258981818,1.0530709555430908,12.694038618890911
11.83373613,0.13567157872181823,4.2225214302,1.0805356676703637,12.846787689454546
11.84372713,0.2717506923581819,4.282178067836363,1.0576600417612727,12.972719608763635
11.85371913,0.4071786069036364,4.2778327042,0.9811675333794545,13.065075869781818
11.86371013,0.4786898363945455,4.217628012363636,0.930123849724909,13.062759937636363
11.87370213,0.43516780628909096,4.066791844690909,0.9360799724339999,12.9910677232
11.88369313,0.3049573835254546,3.7863796239818184,0.8750027165430909,12.976296691163636
11.89368512,0.15465317427090913,3.4675164320909087,0.7732157260158181,12.964393569581818
11.90367712,0.05061469208909097,3.2118962621636364,0.6772381674885453,12.839724743345453
11.91366812,0.013923615870909152,3.0294498393454545,0.6254825667285454,12.651592032036366
11.92366013,0.019160371580000064,2.8830482319999997,0.6783095607939998,12.527486462909092
11.93365113,0.04638573590727279,2.795229006345455,0.7406694778490909,12.459400528854546
11.94364313,0.11997303525272733,2.739191779290909,0.739271953430909,12.425857462854546
11.95363413,0.2672125885454546,2.6473531458545456,0.7145957718163636,12.406107409218182
11.96362613,0.4729816170854546,2.460867248581818,0.7277135164163636,12.402581979036363
11.97361713,0.6970048289854546,2.1920897324545456,0.7926404887254545,12.424715811218181
11.98360912,0.9258791860036364,1.8824570614545455,0.8638929988490909,12.446391605399999
11.99360112,1.1585736325309093,1.5832033205272729,0.8885603192745454,12.440843968672727
12.00359212,1.3622781659854548,1.3505240846727273,0.8732913893654545,12.388937280018181
12.01358413,1.5212354145309093,1.167469391981818,0.8639941676381818,12.296240367254544
12.02357513,1.6538504249854546,0.9761511271672727,0.8845579971745454,12.177479880836364
12.03356713,1.773726797749091,0.7637426571436363,0.9173171398199998,12.050727365218183
12.04355813,1.8847535930218182,0.544322115690909,0.9388002353799999,11.910446255854545
12.05355013,1.9962603676036363,0.3192414004109091,0.9483679572745454,11.760799740327272
12.06354113,2.1105787545854544,0.09423360522909087,0.932513900481818,11.625794936454545
12.07353312,2.227667206821818,-0.12525927158909095,0.8930182551090908,11.505963487854544
12.08352512,2.347797827149091,-0.33838063953454556,0.854621737449091,11.388394865454545
12.09351612,2.4655343103490908,-0.5454625991527273,0.8255687301945454,11.263571933036364
12.10350813,2.5792780116945457,-0.7475167825709091,0.8052960321963636,11.13071228041818
12.11349913,2.6896483320763633,-0.9448811588254545,0.7867987365783635,10.991557345327273
12.12349113,2.7976315426036367,-1.1394186933527273,0.7682935987983637,10.848432729672727
12.13348213,2.908567767149091,-1.3335506331163638,0.745012642563818,10.705309048654545
12.14347413,3.0184706717309093,-1.530739986261818,0.7154768386892727,10.564261365963636
12.15346513,3.1215265984218186,-1.7319352030618183,0.6810787879492726,10.426300324727274
12.16345712,3.217928042878182,-1.9370441101345455,0.6406650632747273,10.295373318618182
12.17344812,3.311262298470909,-2.1484883584254546,0.5938985540801817,10.177920026563637
12.18344012,3.4061560915163636,-2.3700778129163633,0.5374095285710908,10.079029762018182
12.19343213,3.506779518034546,-2.6063075897345453,0.46395491584381815,10.004012130272727
12.20342312,3.615525758321818,-2.852835025625455,0.38867003689836355,9.9437144488
12.21341513,3.7364760944854547,-3.1083236703345456,0.32198128789836356,9.895733019800002
12.22340613,3.874012366176364,-3.3786003592981824,0.25513881026927265,9.868686232527272
12.23339813,4.026376188049091,-3.6704298107527276,0.17973643948745446,9.87213237809091
12.24338913,4.185223827885455,-3.9789876784618183,0.11087794290745447,9.901643968054547
12.25338112,4.353368604376364,-4.297236476770909,0.05899625622927265,9.95312929329091
12.26337213,4.53714095774,-4.6107060481890905,0.017540349089090836,10.027050729836363
12.27336412,4.7067606253036365,-4.863264036570909,0.11762196994363629,10.155103443272727
12.28335658,4.761790281449091,-4.854685703298181,0.630621436470909,9.884766412727272
12.29334758,4.914099320212727,-4.736626910934546,0.6213268885072727,9.800615974181818
12.30333958,5.058256543012727,-4.491968638607273,0.4346204873618181,9.527237451618182
12.31333058,5.016151476667273,-3.9512271610254546,0.3760412736345454,9.042355832963636
12.32332258,4.700151134703637,-3.226797168461818,0.33244375332545445,8.359653573836363
12.33331358,4.208536456012728,-2.5393948286254546,0.36439168514363623,7.680683454127273
12.34330558,3.847844712634545,-2.04992681968,0.48605694443454533,7.298637353327273
12.35329658,3.716028806574545,-1.71728886348,0.5245654309745453,7.275230494127273
12.36328858,3.6204532786763637,-1.5345774183527274,0.44158984882181807,7.398752124927273
12.37328058,3.5301450262945453,-1.4746880455709093,0.32161042685818175,7.413000042927273
12.38327158,3.44089617244,-1.4062124193527272,0.257737803218909,7.401583402018182
12.39326358,3.337794472676364,-1.3086686947527273,0.2638369169279999,7.403080796018181
12.40325458,3.2184761209672725,-1.1788618787527274,0.3207413140007272,7.416314624563636
12.41324658,3.146211435221818,-1.0207014514981818,0.3404721159643635,7.498761534472727
12.42323758,3.171637845181818,-0.7920125097527273,0.27749450170436357,7.629166139254545
12.43322958,3.263270801552727,-0.4512766063345455,0.25955379822436353,7.684898430727273
12.44322058,3.361594127445455,-0.09586425544363644,0.2824902989698181,7.712998003763636
12.45321258,3.4090125784363634,0.17607840630181806,0.30396074461163625,7.832225614
12.46320458,3.3921444825454543,0.3604516036654545,0.2937077702374545,8.0046679604
12.47319558,3.35475171286,0.4748715355563635,0.23597897555654535,8.093927552436364
12.48318758,3.3038700498930362,0.5319371495745454,0.16716371248745446,8.130144867581818
12.49317858,3.2079881930184913,0.578219838810909,0.1237965073619999,8.151982352490908
12.50317058,3.046871333847582,0.6685210798836362,0.10406442564745444,8.168426482490908
12.51316158,2.8344605892603085,0.849297011701818,0.06361530272563626,8.165161891945454
12.52315358,2.6107679749457633,1.1075328271018179,-0.007981577845272833,8.132258539763637
12.53314458,2.3927127157366725,1.4020957773745453,-0.058477980719818294,8.094329461581818
12.54313658,2.1811521039366726,1.6797959797563635,-0.036105959543454656,8.072604495036364
12.55312858,2.002138584100309,1.8879288807018182,0.033288989841999884,8.09198182841818
12.56311958,1.8607555382093999,2.0464550990836363,0.08393699774199989,8.155722989181818
12.57311158,1.7393466261730364,2.2134714852254542,0.08870598948745445,8.248688844018181
12.58310258,1.6264557226094,2.3967256742854546,0.07609610081654535,8.346133154690909
12.59309458,1.5174043161366726,2.5790816406654544,0.0748541508819999,8.450640508654546
12.60308558,1.4113033960821273,2.7644079660181817,0.09481748067472714,8.561024816181819
12.61307758,1.3035530535548545,2.959513291763636,0.13205850347472714,8.666475515927273
12.62306958,1.192686363027582,3.1586152372363636,0.18081163342018172,8.765846527072727
12.63306058,1.0811065886094,3.3564734693272724,0.22783800351109076,8.867187368872727
12.64305258,0.9746725500094,3.551847070636364,0.2654814848565453,8.978244207418182
12.65304358,0.8754466718275818,3.745442895145455,0.29527251969654533,9.099301323218182
12.66303558,0.7830046109912181,3.9376265001272728,0.3245858207345454,9.228463364109091
12.67302658,0.6947463286457637,4.129052593,0.3560864298618181,9.362945086981819
12.68301858,0.6040418104457637,4.319520252799999,0.3943489054236362,9.496868967672727
12.69300958,0.5134228476639454,4.512039466690909,0.43886898080727255,9.628046241763636
12.70300158,0.4293695691730363,4.707719249490909,0.4849342467290908,9.754815298472726
12.71299358,0.3498968027530363,4.9065796412000005,0.5367599901672726,9.874905409072728
12.72298458,0.2721572573603091,5.110132869963636,0.5832121929254545,9.978116952054545
12.73297658,0.19700053875121817,5.303152988254546,0.5437638887436362,10.052183547472726
12.74296758,0.1178101396875818,5.492044259981818,0.49872151081636357,10.09586072249091
12.75295958,0.030949591691218165,5.699039255563636,0.5141197837945454,10.107063344690909
12.76295058,-0.09244365801787274,5.900334034490908,0.4837880011036363,10.120751964109092
12.77294258,-0.25199822623605456,6.082838179927272,0.46421376098727263,10.10929608750909
12.78293358,-0.3899135888542363,6.248837974469636,0.5875503777690908,10.069963775327272
12.79292558,-0.4875471532724182,6.467488044342363,0.7190168994036363,9.999922959981818
12.80291758,-0.48815252081787275,6.627566055233273,0.8873660852636363,9.964572111927273
12.81290858,-0.3268560032178728,6.605053509596909,1.0494445442947273,10.107542047018182
12.82290058,-0.0064875785269636185,6.318188641960545,1.0084522907910907,10.519898895018182
12.83289158,0.32293095394576365,5.8185329015969085,0.9383820039547272,11.113680053381817
12.84288358,0.5307373943094,5.275521332869636,0.9511253832274544,11.689002543927272
12.85287458,0.6262183859457637,4.967710707451455,0.9315909307547272,11.991957730672727
12.86286658,0.7146531638548546,4.959619904524182,0.855354061302,12.053573987872728
12.87285758,0.8396394077457636,5.010896488106,0.8137573837747273,12.16131444318182
12.88284958,0.9622105362912182,4.993398482633273,0.7366126543747272,12.221666920327271
12.89284158,1.0979989423239453,4.898417374706,0.6656959219201818,12.238744176672727
12.90283258,1.198529257238491,4.6736073163605445,0.607318479652909,12.181878222945455
12.91282458,1.1762821990348542,4.314599884742363,0.706168510768909,12.085500576381818
12.92281558,1.1531777503075817,3.934344224196909,0.9277177682961818,12.105288958200001
12.93280758,1.1961582033257638,3.6113326666878183,1.08947734279,12.155776804563635
12.94279858,1.2099205290348545,3.3620350964332726,1.0740670909899999,12.070512658545455
12.95279058,1.1739697475257636,3.150282880669636,0.9643613465354545,11.95132629590909
12.96278158,1.2019833962530364,3.0049800500696366,0.8629535638990908,11.862808873363637
12.97277358,1.2606544378348545,2.901721007033273,0.7791428252499999,11.81036653790909
12.98276558,1.3180623838275818,2.819774618505999,0.7326619259663637,11.756238855781818
12.99275658,1.4065708020984908,2.736716918833272,0.7431566573749091,11.702213621363637
13.00274858,1.5415361927621272,2.6071010781423634,0.7891150906785452,11.660238914927273
13.01273958,1.6871553952166727,2.369914106742363,0.8666249640854545,11.629823665818183
13.02273158,1.8212084549566727,2.0646958496878183,0.9311762155663634,11.607293663636366
13.03272258,1.9708302413236365,1.7567222996878178,0.9495470920554545,11.584031862909091
13.04271458,2.142782205052727,1.4734439812696363,0.942182309980909,11.558561937272728
13.05270658,2.3019638910054545,1.2284364652696362,0.9429648587972727,11.502903553363636
13.06269758,2.4295676722109087,1.0190888105223634,0.9687910123190908,11.41889170329091
13.07268958,2.5278839801254542,0.8205680464376363,1.0183821838172726,11.321018844872725
13.08268058,2.6085059317345456,0.6220055438794543,1.076402581800909,11.218525611981818
13.09267258,2.6821808742072726,0.4307457032594543,1.123553028471818,11.107042034163635
13.10266358,2.756241338225455,0.2449066143179998,1.14264001745,10.978984894654547
13.11265558,2.83805887268,0.04849764121072706,1.1286151092432726,10.849822566963637
13.12264658,2.9243749120072726,-0.16187700249836384,1.0892512255650908,10.735436172763636
13.13263858,3.0101483961527276,-0.3819210591529093,1.0418005562541817,10.631466579545455
13.14263058,3.098484712261818,-0.6049370110074547,1.0006383693705454,10.530999421563635
13.15262158,3.1865267194072726,-0.8290948177710912,0.9690796800396363,10.429074462563637
13.16261358,3.2654198194436366,-1.052304663298364,0.9447305451487271,10.318793736490909
13.17260458,3.3316223299436363,-1.2773614634983639,0.925425843076909,10.204762425854545
13.18259658,3.3857733994181816,-1.5060740386256366,0.9091646512914545,10.094556362672728
13.19258758,3.434913665541818,-1.7387084688620003,0.8908013735187271,9.989837374963637
13.20257958,3.485276318678182,-1.9776163023529092,0.8625336008150908,9.891239602327271
13.21257158,3.540893614682182,-2.2235244224256365,0.8254839108732726,9.799615704363637
13.22256258,3.607558958873091,-2.474652032971091,0.7884887156387271,9.713346732163636
13.23255458,3.690569923345818,-2.7282300414801823,0.7509819860550908,9.633762952727272
13.24254558,3.7914422977276363,-2.986842672771091,0.712154874780909,9.566596145763636
13.25253758,3.905436020709455,-3.2597099865892734,0.6694006206354544,9.521909471054546
13.26252858,4.029561219564,-3.5543972168620006,0.6107026552718182,9.5060148348
13.27252058,4.160987847236727,-3.8749342114256367,0.5508383962899999,9.529157519109091
13.28251171,4.2994053368367275,-4.209165363807455,0.5808792002718182,9.605445135709092
13.29250371,4.453819623073091,-4.559058580952909,0.6266181623081818,9.731517178072727
13.30249571,4.621140760800364,-4.942550664716546,0.5929712608390908,9.910384771963637
13.31248671,4.865692571345819,-5.320836015589274,0.5841241046209089,10.107959961418182
13.32247871,5.158338921364001,-5.608319795116546,0.5870213016390908,10.273956881163636
13.33246971,5.379889571600364,-5.709558646386182,0.49961019311545446,10.308936265527274
13.34246171,5.519382151527636,-5.733599675542545,0.43332532724272715,10.295217485309092
13.35245271,5.5351884192912735,-5.633995131669819,0.33199387202454533,10.232007926963636
13.36244471,5.363590553564,-5.302827813978909,0.2240751934972726,9.984800436054545
13.37243671,5.003774707073091,-4.663759823797091,0.2951298989645453,9.475050216672727
13.38242771,4.605167916327637,-3.7744419114698182,0.3777520129463635,8.799420865181817
13.39241971,4.31123941005491,-2.8328858461970907,0.3615490700554544,8.178523167181819
13.40241071,4.149135150254909,-2.192522857106182,0.35793241567363615,7.917468620454545
13.41240271,4.021858780564,-1.9493158848516365,0.4077098714899998,7.977015960454545
13.42239371,3.874610770073091,-1.8328849360880002,0.43099207025363623,7.998472369181818
13.43238571,3.7369142899967276,-1.6938375737243638,0.4957630893445453,8.045087321563637
13.44237671,3.5908180640367275,-1.5162398269243638,0.5573344190172725,8.105386919472727
13.45236871,3.4854328963312726,-1.2527930897970911,0.6417273330354545,8.202356089672728
13.46236071,3.4733499786694546,-0.8872974599970909,0.6522004577358179,8.283897890963637
13.47235171,3.4146422006149093,-0.48328347781527287,0.49955140604309073,8.271646986963637
13.48234371,3.267250430996727,-0.12074710265163646,0.3339750854521817,8.250210569690909
13.49233471,3.147961328651273,0.16291121578472714,0.31307542506509073,8.355228926981818
13.50232671,3.0954663474694546,0.40010898318472715,0.39128443277054525,8.490744073436364
13.51231771,2.997938652196727,0.5621621303301817,0.47685057597599984,8.593192260709092
13.52230971,2.8843989150149087,0.6696309559119998,0.5716136146614543,8.651414976890909
13.53230171,2.7859038271603636,0.7483980749847273,0.6486833176414545,8.704795086836365
13.54229271,2.6619955334330907,0.8322623713847271,0.6648835908201817,8.762583265436364
13.55228471,2.488436883742182,0.9663238395301817,0.6369833142819998,8.812665009690908
13.56227571,2.297129962451273,1.2058826116574546,0.5738323540001817,8.850088269345454
13.57226771,2.109653605269455,1.505276871802909,0.5255616220038181,8.873317653527273
13.58225871,1.9034111463421817,1.8012765574392724,0.5305443321383635,8.893502004436364
13.59225071,1.674015579233091,2.0630048669483636,0.5716719965383635,8.908512766618182
13.60224271,1.4517567727058185,2.2784219421301817,0.6039869607601817,8.948535320163636
13.61223371,1.2560910125967273,2.4599308223683636,0.6028969281419999,9.021791553872728
13.62222571,1.0867092682512727,2.6315669607076364,0.571503568832909,9.112355471563637
13.63221671,0.9333213065785455,2.804156482247636,0.528980586032909,9.210478855727272
13.64220871,0.7882084148512727,2.9728119226676366,0.4967041576329089,9.322434012818183
13.65219971,0.6452567071785456,3.1388453759181814,0.49233656396018166,9.455111180145456
13.66219171,0.4968409997421818,3.316555835770909,0.5205783524305453,9.591212836018183
13.67218371,0.3456925163421818,3.508630172243636,0.5731633621396363,9.7140569998
13.68217471,0.1951625514149091,3.710726625716364,0.6307925867214544,9.828169631963636
13.69216671,0.04124173296036366,3.914634387116364,0.6768170815941817,9.939300355163637
13.70215771,-0.11590509003963635,4.1149967690436355,0.700546285377818,10.050409861072728
13.71214971,-0.2665747290032727,4.307987938298182,0.710677330686909,10.167198120145455
