Time (s),Linear Acceleration x (m/s^2),Linear Acceleration y (m/s^2),Linear Acceleration z (m/s^2),Absolute acceleration (m/s^2)
0.01901583333,-0.1270813444503818,-0.5891227113106726,-0.09405881065818181,3.892374773209091
0.02900783331,-0.1270813444503818,-0.5891227113106726,-0.09405881065818181,3.892374773209091
0.03899883333,-0.1270813444503818,-0.5891227113106726,-0.09405881065818181,3.892374773209091
0.04899083331,-0.1270813444503818,-0.5891227113106726,-0.09405881065818181,3.892374773209091
0.05898283332,-0.1270813444503818,-0.5891227113106726,-0.09405881065818181,3.892374773209091
0.06897383332,-0.1270813444503818,-0.5891227113106726,-0.09405881065818181,3.892374773209091
0.07896583332,-0.1270813444503818,-0.5891227113106726,-0.09405881065818181,3.892374773209091
0.08895783333,-0.1270813444503818,-0.5891227113106726,-0.09405881065818181,3.892374773209091
0.09894883333,-0.1270813444503818,-0.5891227113106726,-0.09405881065818181,3.892374773209091
0.1089408333,-0.1270813444503818,-0.5891227113106726,-0.09405881065818181,3.892374773209091
0.1189328333,-0.1270813444503818,-0.5891227113106726,-0.09405881065818181,3.892374773209091
0.1289238333,-0.1270813444503818,-0.5891227113106726,-0.09405881065818181,3.892374773209091
0.1389158333,-0.1270813444503818,-0.5891227113106726,-0.09405881065818181,3.892374773209091
0.1489078333,-0.1270813444503818,-0.5891227113106726,-0.09405881065818181,3.892374773209091
0.1588988333,-0.1270813444503818,-0.5891227113106726,-0.09405881065818181,3.892374773209091
0.1688908333,-0.1270813444503818,-0.5891227113106726,-0.09405881065818181,3.892374773209091
0.1788828333,-0.1270813444503818,-0.5891227113106726,-0.09405881065818181,3.892374773209091
0.1888738333,-0.1270813444503818,-0.5891227113106726,-0.09405881065818181,3.892374773209091
0.1988658333,-0.1270813444503818,-0.5891227113106726,-0.09405881065818181,3.892374773209091
0.2088578333,-0.1270813444503818,-0.5891227113106726,-0.09405881065818181,3.892374773209091
0.2188488333,-0.1270813444503818,-0.5891227113106726,-0.09405881065818181,3.892374773209091
0.2288408333,-0.1270813444503818,-0.5891227113106726,-0.09405881065818181,3.892374773209091
0.2388328333,-0.1270813444503818,-0.5891227113106726,-0.09405881065818181,3.892374773209091
0.2488238333,-0.1270813444503818,-0.5891227113106726,-0.09405881065818181,3.892374773209091
0.2588158333,-0.1270813444503818,-0.5891227113106726,-0.09405881065818181,3.892374773209091
0.2688078333,-0.1270813444503818,-0.5891227113106726,-0.09405881065818181,3.892374773209091
0.2787988333,-0.1270813444503818,-0.5891227113106726,-0.09405881065818181,3.892374773209091
0.2887908333,-0.1270813444503818,-0.5891227113106726,-0.09405881065818181,3.892374773209091
0.2987818333,-0.1270813444503818,-0.5891227113106726,-0.09405881065818181,3.892374773209091
0.3087738333,-0.1270813444503818,-0.5891227113106726,-0.09405881065818181,3.892374773209091
0.3187658333,-0.1270813444503818,-0.5891227113106726,-0.09405881065818181,3.892374773209091
0.3287568333,-0.1270813444503818,-0.5891227113106726,-0.09405881065818181,3.892374773209091
0.3387488333,-0.1270813444503818,-0.5891227113106726,-0.09405881065818181,3.892374773209091
0.3487408333,-0.1270813444503818,-0.5891227113106726,-0.09405881065818181,3.892374773209091
0.3587318333,-0.1270813444503818,-0.5891227113106726,-0.09405881065818181,3.892374773209091
0.3687238333,-0.1270813444503818,-0.5891227113106726,-0.09405881065818181,3.892374773209091
0.3787158333,-0.1270813444503818,-0.5891227113106726,-0.09405881065818181,3.892374773209091
0.3887068333,-0.1270813444503818,-0.5891227113106726,-0.09405881065818181,3.892374773209091
0.3986988333,-0.1270813444503818,-0.5891227113106726,-0.09405881065818181,3.892374773209091
0.4086908333,-0.1270813444503818,-0.5891227113106726,-0.09405881065818181,3.892374773209091
0.4186818333,-0.1270813444503818,-0.5891227113106726,-0.09405881065818181,3.892374773209091
0.4286738333,-0.1270813444503818,-0.5891227113106726,-0.09405881065818181,3.892374773209091
0.4386658333,-0.1270813444503818,-0.5891227113106726,-0.09405881065818181,3.892374773209091
0.4486568333,-0.1270813444503818,-0.5891227113106726,-0.09405881065818181,3.892374773209091
0.4586488333,-0.1270813444503818,-0.5891227113106726,-0.09405881065818181,3.892374773209091
0.4686408333,-0.1270813444503818,-0.5891227113106726,-0.09405881065818181,3.892374773209091
0.4786318333,-0.1270813444503818,-0.5891227113106726,-0.09405881065818181,3.892374773209091
0.4886238333,-0.1270813444503818,-0.5891227113106726,-0.09405881065818181,3.892374773209091
0.4986158333,-0.1270813444503818,-0.5891227113106726,-0.09405881065818181,3.892374773209091
0.5086068333,-0.1270813444503818,-0.5891227113106726,-0.09405881065818181,3.892374773209091
0.5185988333,-0.1270813444503818,-0.5891227113106726,-0.09405881065818181,3.892374773209091
0.5285908333,-0.1270813444503818,-0.5891227113106726,-0.09405881065818181,3.892374773209091
0.5385818333,-0.1270813444503818,-0.5891227113106726,-0.09405881065818181,3.892374773209091
0.5485738333,-0.1270813444503818,-0.5891227113106726,-0.09405881065818181,3.892374773209091
0.5585658333,-0.1270813444503818,-0.5891227113106726,-0.09405881065818181,3.892374773209091
0.5685568333,-0.1862476292631091,-0.5613514030943091,-0.12424340298545454,3.928522696827273
0.5785488333,-0.24612363848492727,-0.5493726270106728,-0.1476100036581818,3.965790628554546
0.5885408333,-0.30596615377765457,-0.5436630441852182,-0.16570011943999996,3.999231415081818
0.5985318333,-0.3653863299994728,-0.5318906535452183,-0.17255992400363634,4.018732872590909
0.6085238333,-0.4165345937740182,-0.5140490391094,-0.16468079029454544,4.0164159177
0.6185158333,-0.4493568318594727,-0.4966077463184909,-0.13342003387636361,3.9830592432272725
0.6285068333,-0.46113760395220005,-0.4807696271694,-0.08506512323090908,3.939949675172727
0.6384988333,-0.4508881578249273,-0.4657810287112182,-0.02930177972181817,3.9172131848636367
0.6484908333,-0.4157502774976546,-0.44426295617849093,0.041652289850909095,3.9251348996090907
0.6584818333,-0.37922811139220003,-0.42728921738394543,0.11466771556000002,3.937258704518182
0.6684738333,-0.34822113742674543,-0.42002461540212727,0.18282888916,3.942813919809091
0.6784658333,-0.31943691603583635,-0.4119753702330363,0.22957263674545456,3.9386561441181818
0.6884568333,-0.3000285690685637,-0.4020659078148546,0.2539864843727273,3.9279466007545456
0.6984488333,-0.2856490631158364,-0.38478086326394545,0.26084726702727273,3.9298858930090907
0.7084408333,-0.2699818155540182,-0.3594572898839455,0.2574010882272727,3.9435355132090906
0.7184318333,-0.25138353453438184,-0.3247013496803091,0.25206231454727274,3.9648358804090904
0.7284238333,-0.22984324390347272,-0.2819241193130364,0.2572148490854545,3.9941004171363637
0.7384158333,-0.19937824171074545,-0.24442708415121817,0.28282703570545453,4.030353603618182
0.7484068333,-0.15159773229983636,-0.22094103550939997,0.3338788841981818,4.082894595381818
0.7583988333,-0.0837488319180182,-0.20936131062576363,0.40170789341636365,4.151844493363637
0.7683908333,-0.002020023645290913,-0.20021751452758182,0.45760767903454547,4.209764341672726
0.7783818333,0.07983737020925454,-0.19266047201849093,0.4902484102527273,4.244260279818182
0.7883738333,0.15075904620925454,-0.19434250865485456,0.5061092484890909,4.2599484053818175
0.7983658333,0.2080661157910727,-0.2094757938003091,0.5109286831072727,4.2622209296
0.8083568333,0.25219814868379997,-0.23745485358576365,0.5025060559981818,4.249731230309091
0.8183488333,0.28447294252379995,-0.2747268560003091,0.47885888465272725,4.22235250450909
0.8283408333,0.3083378747956182,-0.31215631861667276,0.44282337697999996,4.185192778527273
0.8383318333,0.32779934337561817,-0.33973819299303637,0.4040445896163637,4.148726120618182
0.8483238333,0.34879901772507277,-0.3542935127675818,0.3671676569981818,4.115924692763636
0.8583158333,0.36741688060507277,-0.36007901105849094,0.3310908360890909,4.083882762472727
0.8683060833,0.3752963020378,-0.3537156723130364,0.29960399441636365,4.053506829690909
0.8782980833,0.3716604501887091,-0.3259699031494,0.2720476723618182,4.014571726
0.8882900833,0.3598898495959818,-0.2840117640403091,0.24559349732545457,3.9645105657090904
0.8982810833,0.3486354591450727,-0.24183093638576364,0.21700555634363639,3.9123502667454546
0.9082730833,0.34857717835052726,-0.20586200458576365,0.17521950344545453,3.866786090909091
0.9182650833,0.3633037245287273,-0.17843038770030908,0.11435174266363637,3.8432924868181817
0.9282560833,0.38867459125054543,-0.15970477525667273,0.04027753502727273,3.847448064272727
0.9382480833,0.41105705900872724,-0.1468395772275818,-0.04321803602727272,3.8703648845454546
0.9482400833,0.4211410900450909,-0.12990162338758182,-0.13714176537272726,3.8978428966
0.9582310833,0.4184488673392728,-0.0997512000603091,-0.22786603651818182,3.9257599269454544
0.9682230833,0.4129893167683636,-0.05458437743121818,-0.3057877864618182,3.946462098181818
0.9782150833,0.4134132199701818,0.004907323543327268,-0.3723630463290909,3.953979949709091
0.9882060833,0.4239773818392727,0.07011362531241816,-0.4273918519836364,3.951030377290909
0.9981980833,0.4430446444374545,0.12919963582332727,-0.4811424350381818,3.9496660814
1.008190083,0.4700552365483636,0.1774337456506,-0.5471242131436364,3.9575549788909092
1.018181083,0.4983886150149091,0.20408694928150908,-0.6254387046127272,3.9825125947272726
1.028173083,0.520933042598,0.18996339323060002,-0.7002384772945455,4.030165523345454
1.038165083,0.5302251003356364,0.13985054909423633,-0.7553858432181818,4.055011928
1.048156083,0.5158572775156364,0.09826726169605454,-0.8032779201818182,4.081321180436364
1.058148083,0.4863605210683637,0.10707044685501818,-0.8147873455818182,4.089972638036364
1.068140083,0.43260658783381817,0.16534789109465456,-0.7941009916181819,4.048166092163636
1.078131083,0.36942800211563637,0.2022070800801091,-0.7530973812181818,3.993950927127272
1.088123083,0.33541468354109083,0.2099621784126,-0.7144483595272728,3.954318040672727
1.098115083,0.33667759374836365,0.21169611174169092,-0.6860072261818181,3.9261768972545457
1.108106083,0.35813434227745455,0.21281575785805454,-0.6621483643818182,3.899168316836364
1.118098083,0.3939412377701818,0.22149301525441817,-0.6366331245818181,3.864648967381818
1.128090083,0.4389917645956364,0.24689764167260003,-0.5975098724363637,3.8129799846545454
1.138081083,0.48263897692654545,0.2763522675926,-0.5417871405090909,3.745958239290909
1.148073083,0.5166562569738181,0.2982852638707818,-0.4780218611109091,3.6794107663818183
1.158065083,0.5363560514338181,0.3136374049804182,-0.4160484450029091,3.6314652102545453
1.168056083,0.5324477326247272,0.3270868567931455,-0.36700719881563637,3.623258354909091
1.178048083,0.5059071290829091,0.3391067122222364,-0.3274387928247273,3.636415156436364
1.188040083,0.47068843590436366,0.34848157433132726,-0.287744799261091,3.6429389068727267
1.198031083,0.4292720958134545,0.34771532862223636,-0.25539235705200003,3.637104408309091
1.208023083,0.394442613588,0.34819190327678184,-0.22138774685200002,3.6401789296181817
1.218015083,0.365127181968,0.3540901544949636,-0.18208710079745455,3.6600676312
1.228006083,0.34268613174534546,0.3541808129131455,-0.12603005696472727,3.6966907174545454
1.237998083,0.3271221111289818,0.34774177398587275,-0.048993213992000004,3.7452950986181817
1.247990083,0.3096581191762545,0.33454391722950905,0.04765874111709091,3.7911559517272724
1.257981083,0.29521706728898184,0.32168381159314546,0.1522205756807273,3.829952348290909
1.267973083,0.2813755307548,0.30766368746587275,0.24909906257163633,3.864174903618182
1.277965083,0.2658544755457091,0.29229586519314543,0.33437378188618183,3.901857380363636
1.287956083,0.2412110968057091,0.2786826913386,0.3955563567589091,3.9364375821090913
1.297948083,0.19819010399116363,0.2756109948113273,0.4252672289407273,3.9556633907454546
1.307940083,0.14691250246752727,0.2855194419386,0.434825364068,3.9573575457818184
1.317931083,0.10286500835661817,0.29772015706587274,0.4477500070316363,3.961711815709091
1.327923083,0.07159953962207273,0.2966073256113273,0.46381394564981815,3.967996916127273
1.337915083,0.04888329286389092,0.27633928147314546,0.47467388361345453,3.9689461099636363
1.347906083,0.023192203367527274,0.24956677869314545,0.47647969517709093,3.962397228272727
1.357898083,-0.014123903661563634,0.2190817457986,0.4540785335952727,3.9357483425818183
1.367890083,-0.06538295622519999,0.19352835026769094,0.40925602161345453,3.8948162541636364
1.377881083,-0.11462023562519998,0.18516622058405455,0.3456709959407272,3.836425571527273
1.387873083,-0.14886393713974544,0.18541897445496366,0.2673743756861818,3.7608592771090907
1.397865083,-0.1568741255724727,0.1804008089276909,0.1942026485734545,3.7003237683090906
1.407857083,-0.15942655081974547,0.18746431187314547,0.12993278636981817,3.6467197875818185
1.417848083,-0.16931869667210905,0.20659090510769088,0.06960261860254545,3.5934393276727272
1.427840083,-0.1853282920648364,0.2250101367495091,0.013219948647999987,3.5583866204
1.437832083,-0.1934943626121091,0.22472507700405453,-0.03150309689018183,3.546500000509091
1.447823083,-0.1946936816921091,0.20452410307678184,-0.05980867051745456,3.5620869109272726
1.457815083,-0.19953153370301818,0.16804237576769093,-0.07412747041381819,3.598208975781818
1.467807083,-0.2200999586212,0.11750818126405452,-0.07042583206836366,3.634804104618182
1.477798083,-0.24636658688665453,0.058460515202236364,-0.048537566995636376,3.660964733909091
1.487790083,-0.2665130288812,-0.0008435300086727276,-0.013566656559272743,3.6753368468363634
1.497782083,-0.28251251523574544,-0.05247473657594546,0.027860451713454533,3.676225267236364
1.507773083,-0.2952188007317455,-0.0927301585214,0.07550529774981816,3.6611748623090907
1.517765083,-0.32177086615174544,-0.11738075989594546,0.12396915796799997,3.6390165035454545
1.527757083,-0.3533917645408363,-0.13756851910685455,0.1641059877498182,3.622978823218182
1.537748083,-0.3813523750281091,-0.15982164247594546,0.19235868129527273,3.6149276652909093
1.547740083,-0.4071653098626546,-0.17830259413230912,0.20340805840436363,3.6176871340727272
1.557732083,-0.423978743246291,-0.19372985866867273,0.19973417838618182,3.6278471475090908
1.567723083,-0.4404299921255636,-0.20550758089958182,0.18639014122254546,3.6449772471636357
1.577715083,-0.4522697339650182,-0.21315437815958183,0.160673672168,3.672219248163636
1.587707083,-0.45794983436629083,-0.21626706367776366,0.13089384538618182,3.7023819652545455
1.597698083,-0.4551194065717455,-0.22002675423958182,0.10087935389527271,3.7323911492181816
1.607690083,-0.44500325571538185,-0.2294983824603636,0.07925406467709091,3.753870185090909
1.617682083,-0.4343207442161091,-0.24338349437272727,0.07364191771345453,3.7595931879454545
1.627673083,-0.42710462361974544,-0.26015917734181815,0.08236744122254545,3.751238222090909
1.637665083,-0.4231158371561091,-0.28040153626545455,0.10552421191345454,3.7286261036909085
1.647657083,-0.42345945144156366,-0.2992697463527273,0.14045564831345453,3.6941912975272726
1.657649083,-0.4285001579815636,-0.31508153708363634,0.18227997389527273,3.6533438233272726
1.667640083,-0.4295958298488364,-0.3358460789418182,0.22815538867709093,3.6094694678545456
1.677632083,-0.42265416692156366,-0.3628344290345455,0.2779493628887273,3.56560259084
1.687624083,-0.40129988951065454,-0.39072094866181817,0.36923454148872725,3.5904894907490905
1.697615083,-0.37718759874883634,-0.4072086987854545,0.4164615348723636,3.600780457112727
1.707607083,-0.3569964853561091,-0.40866433122909085,0.4198759048243636,3.5944726071981816
1.717599083,-0.3346678844070182,-0.41256830980181813,0.4103938579261818,3.584641044289091
1.727590083,-0.30889947479610913,-0.41217608920181814,0.3764598289389091,3.5776820990890905
1.737582083,-0.29082569367210914,-0.4032772808018182,0.33106832970618183,3.5732098003254547
1.747574083,-0.28797127036847275,-0.3895680318745455,0.27904643876436364,3.559681575107273
1.757565083,-0.2908810734502909,-0.3747928568018182,0.23138643249163635,3.5390926250163637
1.767557083,-0.28222640623938183,-0.3629002155109091,0.20118641414618182,3.5234811186163633
1.777549083,-0.26327926405309093,-0.35622988198363637,0.19154690705527272,3.520119016634545
1.787540083,-0.23209375598036366,-0.3485506752018182,0.19125473761890907,3.523358371052727
1.797532083,-0.19594373856036362,-0.3367881185181818,0.18776210001890906,3.521845209489091
1.807524083,-0.16696534709309088,-0.3327935081,0.18226010398254544,3.5172573811072723
1.817515083,-0.13719911108945457,-0.3395359803,0.1834928246189091,3.5172058711254546
1.827507083,-0.1095325331530909,-0.3553129056818182,0.1914184277643636,3.521980899525455
1.837499083,-0.08443629686218182,-0.37837994285636367,0.21417374987345453,3.539862585925454
1.847490083,-0.055493452476727274,-0.4087374160841818,0.24660076001890907,3.5674780075072725
1.857482083,-0.03181757795854546,-0.44865199320054544,0.26769071005527273,3.5844816420345453
1.867474125,-0.024838366604000003,-0.49948869073327273,0.2657884406916364,3.578904777270909
1.877466125,-0.025852972807636362,-0.5479378744423636,0.24818737538254546,3.5611253264345453
1.887457125,-0.018566361358545457,-0.5707406599969091,0.21204696865527273,3.529443891307273
1.897449125,0.00775406926509091,-0.5752998190914546,0.165607903528,3.495162220925455
1.907441125,0.05927419800327272,-0.5676488384078181,0.12447260321890907,3.4772192835981817
1.917432125,0.13554492814872726,-0.5541117102478181,0.08156920056436362,3.470347352725454
1.927424125,0.21393981085781819,-0.5459896566078182,0.0382358043061818,3.4813355956890906
1.937416125,0.27236707539054544,-0.5406426702550909,0.0015053603789090748,3.5096386917436364
1.947407125,0.2956522057323636,-0.5294934652241818,-0.039342597126545475,3.527836167834545
1.957399125,0.3080177033778182,-0.5266541104605454,-0.08341721834109092,3.5526903313618177
1.967391125,0.32481522686109093,-0.5343009821496363,-0.12252559730109092,3.591232526489091
1.977382125,0.3452690729301819,-0.5446693765732727,-0.16208436071018184,3.6294012228709094
1.987374125,0.3539188072174545,-0.5397781275187273,-0.21631444733563637,3.6683002190163636
1.997366125,0.34401826645745454,-0.5198724246823636,-0.2837537662174546,3.7032708450163634
2.007357125,0.32498301072109087,-0.48731242226418187,-0.35527669545927276,3.7365000885618183
2.017349125,0.3131793188774546,-0.42920714662054543,-0.4315818710229091,3.7668559450345453
2.027341125,0.31495075611563633,-0.34754868567327274,-0.5078545679501819,3.7915293710527274
2.037332125,0.3414871350356363,-0.2737316757969091,-0.5869322380229092,3.820665483452727
2.047324125,0.3765646535029091,-0.22240305200963637,-0.664324506641091,3.858373657961818
2.057316125,0.4039788230901818,-0.1882963015769091,-0.7386060778047274,3.9019475445981815
2.067307125,0.43652274633818183,-0.17097443552236366,-0.8106712034047273,3.9484912467799997
2.077299125,0.4666758959236363,-0.15865512823145456,-0.8747601315138183,3.989526398543637
2.087291125,0.4918167504509091,-0.14290609406781818,-0.9313760628592728,4.02676006888909
2.097283125,0.5165526667,-0.129445054126,-0.9792190338229092,4.060975884889091
2.107274125,0.5340487279581818,-0.12023758716600001,-1.0186777992047273,4.094218305034546
2.117266125,0.5513173338641818,-0.11621070542963638,-1.0484738493683636,4.120884614289091
2.127258125,0.5672677016132727,-0.11143565119327273,-1.0629446130774547,4.133951212489091
2.137249125,0.5822158140732727,-0.11009242349872728,-1.0701502219865453,4.141010109707272
2.147241125,0.5887055769314545,-0.11004036733327273,-1.074377259241091,4.14524163258
2.157233125,0.5827213716478181,-0.10566947795145454,-1.082843836132,4.153520787034545
2.167224125,0.5766914371503636,-0.09861693852600001,-1.106740906822909,4.1768650250163635
2.177216125,0.5798071054134546,-0.08987206073872728,-1.1497725654956363,4.218765230634545
2.187208125,0.5850707968516363,-0.07863568967654545,-1.2100475887138182,4.277426652543636
2.197199125,0.5896301253825454,-0.06860616797909092,-1.2786129431138182,4.3445476574163635
2.207191125,0.596540294408,-0.06545089346945454,-1.3496566239138181,4.413688233707273
2.217183125,0.6031195774734546,-0.066713434904,-1.4286670828774546,4.489051468107273
2.227174125,0.6014341906516363,-0.06687180408218182,-1.5226339646709088,4.573478973049091
2.237166125,0.5744518233279999,-0.05789255925854546,-1.6648483171800001,4.595116582321818
2.247158125,0.5386998019552727,-0.05128619959672727,-1.770179453961818,4.635612339758182
2.257150125,0.5117940557389091,-0.06076277137309091,-1.8395056161672727,4.688263165545455
2.267141125,0.4927873882352728,-0.07730906275763637,-1.9024010956563635,4.728413823654546
2.277133125,0.47889019252072734,-0.11193734229763637,-1.9489810893054544,4.752892901418182
2.287125125,0.4710041790170909,-0.16685289269218181,-1.9971941039818182,4.769746191109092
2.297116125,0.4730869944407273,-0.22893557731036362,-2.0579767611854547,4.791884259145454
2.307108125,0.4820859762752727,-0.2947711032558182,-2.1473018467854543,4.8301748512545455
2.317100125,0.48668028244799993,-0.36964828243763637,-2.282344121530909,4.883654666599999
2.327091125,0.48702658379345454,-0.44897108905581823,-2.4557896116581817,4.941731441509091
2.337083125,0.4816168063116364,-0.5325529012194545,-2.6459565970036363,4.994687172054546
2.347075125,0.47688665868436364,-0.6271618498194546,-2.8213280642763636,5.03396790010909
2.357066125,0.47727051510436364,-0.7344266874012728,-2.9443908931672724,5.051436014036363
2.367058125,0.49600001993163634,-0.8570110811467273,-2.9983006267854546,5.081876231218182
2.377050125,0.5430903226770909,-1.0114524772012727,-3.0010742163309088,5.166057331109092
2.387042125,0.6177752879280001,-1.1878967862812728,-2.982839164021818,5.286288910981817
2.397033125,0.705471058848,-1.361603195108,-2.975889386749091,5.405102585254546
2.407025125,0.7879415425807271,-1.523925335537091,-3.0040664492036364,5.501330548127272
2.417017125,0.8596269260643636,-1.6743843737498183,-3.0824333955127274,5.577629917090909
2.427008125,0.9211173036752727,-1.8219591665134547,-3.1937908641036357,5.664859700581819
2.437000125,0.9797116909116363,-1.989531224257091,-3.2940897701400003,5.797827857290909
2.446992125,1.038571233438909,-2.1792230488734545,-3.3637264195036365,5.963744326909091
2.456983125,1.0924290172207272,-2.3711512793316363,-3.3939529310527274,6.133007565436363
2.466975125,1.138802428748,-2.5579300104916363,-3.3802069031436366,6.296483903418181
2.476967125,1.1976938412752727,-2.738800863904364,-3.3177711849036364,6.464099548581819
2.486958125,1.2899903277116365,-2.9048806164661825,-3.205460917830909,6.652421159236364
2.496950125,1.426291404329818,-3.039432676588,-3.035629591703636,6.871425251890909
2.506942125,1.5935709816207273,-3.1308919533698187,-2.810539855649091,7.112543844818182
2.516934125,1.7688258261389092,-3.167752620115273,-2.5498228221581813,7.3586449210545455
2.526925125,1.9435864799298181,-3.1447547129752733,-2.277484830103637,7.589611080818181
2.536917125,2.0979497737952726,-3.082155554429818,-2.0204928555399997,7.7703026023090915
2.546909125,2.2150716900316363,-3.001108138157091,-1.8013678535945452,7.877304388000001
2.556900125,2.296371708689818,-2.911683687102545,-1.6184974172854545,7.917890391618181
2.566892125,2.3406437212625457,-2.8428134642007272,-1.4625903847218182,7.90818129709091
2.576884125,2.3484641708670906,-2.801365678038909,-1.3243502703945453,7.876118845927273
2.586875125,2.3205428975252724,-2.750873376188,-1.1757624740854544,7.845274818054545
2.596867125,2.284313148005273,-2.6819309082661813,-0.994228488030909,7.8376957533818175
2.606859125,2.273671374987091,-2.614059283480727,-0.7706850216490908,7.870355610927272
2.616850125,2.2964976444118186,-2.556826066898909,-0.5251663367763636,7.9207124382
2.626842125,2.328028293026364,-2.5234246660970907,-0.2779672259036363,7.958908298963637
2.636834125,2.3415879635332724,-2.5262440712243635,-0.05379904299454541,7.964187333200001
2.646826125,2.3285964722841817,-2.5589600507843637,0.1291399120418182,7.935350788909091
2.656817125,2.2797385110623636,-2.598501942308,0.2903094918236364,7.905275975436364
2.666809125,2.218973512441818,-2.6418478303534547,0.4411346029509091,7.882649940763637
2.676801125,2.17768873204,-2.691158346135273,0.5876780850781819,7.854125496563636
2.686792125,2.165813863634545,-2.732732883975273,0.7433036220418183,7.821173936836363
2.696784125,2.171197731963636,-2.7795017426898183,0.9015907158963636,7.7921240396909095
2.706776125,2.186096849409091,-2.836361051086182,1.0552454860236364,7.760875827945454
2.716767125,2.206217002189091,-2.894865170620727,1.1955463637872727,7.718265893290909
2.726759125,2.2273342819750908,-2.950336892224364,1.315084820636909,7.660862556127273
2.736751125,2.267994390375091,-2.9954103826519995,1.4056648144005455,7.606530259254546
2.746742125,2.3320548777514545,-3.035175616553091,1.4697266114187273,7.577853362236364
2.756734125,2.4087907738278185,-3.070272954408182,1.520707921236909,7.568269811781818
2.766726125,2.493712342573273,-3.0903443354372726,1.575028767273273,7.563199320072727
2.776718125,2.5898033304423635,-3.1020726327590906,1.6377506907641817,7.565517640909092
2.786709125,2.7076544722241818,-3.1164543114881815,1.686792000727818,7.587140838745454
2.796701125,2.842008811406,-3.1149098226299996,1.704667066546,7.629238278345454
2.806693125,2.962891335824182,-3.1076641762499997,1.7053859126005455,7.678878487272728
2.816684125,3.0687623553278183,-3.0911558651890907,1.6872769050005452,7.742390829472727
2.826676125,3.1875073397023637,-3.0464101058854545,1.6525148890005457,7.840508507054545
2.836668125,3.320299451696909,-2.9837023326545458,1.6342045564550909,7.948796003636364
2.846659125,3.442253310951455,-2.8960774472727273,1.6557051192369092,8.042535134527274
2.856651125,3.5837746674060003,-2.8245855747272732,1.772772234455091,8.134077231054546
2.866643875,3.7500912454787274,-2.7526600328,1.980590156546,8.245579014927273
2.876634875,3.910341805096909,-2.6640412058,2.2390433714914546,8.35209937341818
2.886626875,4.050683025996909,-2.573322590509091,2.497584326564182,8.430764722000001
2.896618875,4.177346145022364,-2.4714039738363636,2.706790654055091,8.487964288236364
2.906610875,4.264946737876909,-2.3482166311454544,2.829275937509636,8.522948494654546
2.916601875,4.328135508386,-2.2243136318,2.8600597843823636,8.5261662792
2.926593875,4.329582003240546,-2.0814802930454546,2.833551644855091,8.440359337327273
2.936585875,4.277096545040545,-1.8739743358818182,2.7399936535459997,8.277963046763636
2.946576875,4.230550369549636,-1.6720855649,2.645970510909636,8.111884912745454
2.956568875,4.198221167349637,-1.4568318768636364,2.5733809312605453,7.978930348654545
2.966560875,4.145291682222363,-1.2443017687363636,2.5693936511150914,7.852777905454545
2.976551875,4.068610945328728,-1.0043469221909092,2.605356206796909,7.738542153563636
2.986543875,4.0034687742360004,-0.7140318463727272,2.5823474025605457,7.6562341993272724
2.996535875,3.931821628890545,-0.3921356293545455,2.4879297323423635,7.609851585945455
3.006527875,3.8341364388652726,-0.06607489775454545,2.348748543218727,7.5789544934
3.016518875,3.711992983647091,0.22187198120909088,2.2017061766369093,7.5194832986
3.026510875,3.564253501392546,0.47631514384545454,2.0793837647278184,7.3999205802
3.036502875,3.363866986410727,0.7117995016636364,1.9671617919278181,7.250586732327273
3.046493875,3.055904312138,0.9080689442636364,1.8243676720314548,7.130118321818181
3.056485875,2.648924345774364,1.028012645050909,1.6480768629187275,7.056805664
3.066477875,2.267440961410727,1.1052968465054547,1.4787382870641816,6.956524927272728
3.076468875,1.901909440447091,1.1379633426745455,1.3041912452096365,6.854944028727274
3.086460875,1.5701584537016366,1.1389966041472728,1.141443948355091,6.780143417363636
3.096452875,1.2953678311925454,1.1402378670381819,1.019009543664182,6.761504987018181
3.106444875,1.078035745047091,1.1433652343836365,0.9473242744641819,6.7924828033818185
3.116435875,0.9107748443016365,1.1452467620745455,0.9308063155005455,6.86337889730909
3.126427875,0.7733628206461819,1.1515143978381817,0.9547324814096364,6.959437235672727
3.136419875,0.6482779714425455,1.156899747238182,0.9769600338278182,7.0487788168000005
3.146410875,0.534533531217091,1.1590917567472727,0.954057287464182,7.0986458683454545
3.156402875,0.42516834720800006,1.1650603765472727,0.8663235907187274,7.088205951981819
3.166394875,0.3251169166080001,1.1749221522563635,0.7194821078916365,7.025621658163636
3.176385875,0.2540627958625455,1.2127056372,0.5567246156916364,6.953917517963635
3.186377875,0.23243343486472734,1.2809125785454545,0.44318945262309095,6.887118776290909
3.196369875,0.2583649751516364,1.3612743822181819,0.39704304596854545,6.836406750181818
3.206361875,0.3207585615352728,1.41163687322,0.3713177582521819,6.7657155597818175
3.216352875,0.3984388427407274,1.43916693862,0.31428224667036364,6.714912741581819
3.226344875,0.4968955675407274,1.4640768560381818,0.19499214765218187,6.743142909763637
3.236336875,0.6394852049789091,1.4941057715472728,0.02083318028854551,6.8572766776363645
3.246327875,0.818128061837091,1.5755930898200001,-0.14018489283872723,6.998914587945454
3.256319875,0.9884401673025455,1.682849411710909,-0.2746669139478181,7.127296916709091
3.266311875,1.0974655324098181,1.7821489701290907,-0.3889282055114545,7.210834535763636
3.276302875,1.1570456618825455,1.8667518922018185,-0.4688287701792726,7.263787484309091
3.286294875,1.177656374137091,1.9113118947689092,-0.5256781542701818,7.302353189181818
3.296286875,1.1684305203370908,1.9134459450780001,-0.548977474742909,7.312255146745454
3.306278875,1.1330825176461818,1.8872247018234545,-0.5315999431974545,7.296135428527274
3.316269875,1.0638674950661817,1.8579822128961818,-0.46455571005199997,7.261887921309091
3.326261875,1.0215873737025454,1.8737113964307273,-0.37350430845199994,7.240809842418181
3.336253875,1.0627277557752728,1.9048457971761819,-0.1891804244338182,7.342337799709091
3.346244875,1.1369110193025456,1.7493052043161819,-0.13263000848836362,7.4581134757636365
3.356236875,1.1868669294843637,1.6346132174707273,-0.0653640542392727,7.520206203763635
3.366228875,1.2108794986479998,1.4960068521670908,-0.01595399227563634,7.569637226654545
3.376219875,1.1947842933752728,1.356317933367091,0.03274868950618185,7.5677887304
3.386211875,1.1235853105207272,1.2503314938034547,0.0719504378698182,7.500452637381818
3.396203875,1.0014437157752727,1.188853680399818,0.08039160596072728,7.376849090181818
3.406195875,0.7820675706298181,1.2831262971452728,0.08741598306981822,7.359732693636364
3.416186875,0.47162057392072737,1.3328648663270908,0.08911520519709093,7.323918807272727
3.426178875,0.17380169190254546,1.2296205582907271,0.0953716940516364,7.291112412545455
3.436170875,-0.10914604097018184,1.0069254272725454,0.23364868030618186,7.440498426909091
3.446161875,-0.33360391620654545,0.6914142102907272,0.5086232987607273,7.744430156036364
3.456153875,-0.4362603132810909,0.3767114717816363,0.665715200488,7.9693287413090905
3.466145875,-0.45972319100836356,0.13934356103618176,0.5831571135061818,8.085992821272727
3.476136875,-0.40695697079018184,0.04203474033618177,0.4038140366334546,8.191314454363637
3.486128875,-0.35132795377200005,-0.04158897510018185,0.25823512181527275,8.284165232981819
3.496120875,-0.40514076181381814,-0.1414520562638182,0.14161895981527275,8.323645690018182
3.506112875,-0.5549295124320001,-0.2741882263547273,0.05992991924618184,8.375599795181818
3.516103875,-0.7025117364865455,-0.40697452833654546,-0.019757944990181794,8.465941785472728
3.526095875,-0.8211479785929091,-0.5666590748274546,-0.06947411668109088,8.546292678745454
3.536087875,-0.9322879626638182,-0.7512003157910908,-0.006542721995636342,8.547242815999999
3.546078875,-1.018004593282,-0.9287286295547272,0.14420996869527275,8.462028360072727
3.556070875,-1.0670805400385455,-1.0863956421365455,0.32956474871345454,8.343138429581819
3.566062875,-1.082347343693091,-1.1941936341456363,0.5184537772407273,8.2620073676
3.576053875,-1.0800896486930909,-1.2671224307092726,0.6672656707498181,8.246110471909091
3.586045875,-1.0508921833112728,-1.3348300729856362,0.7758265210952727,8.250205156036364
3.596037875,-0.9485277004930909,-1.377441944102,0.8648032508461819,8.198660694036365
3.606029875,-0.7649716090021819,-1.3474249808165455,0.9257353097407273,8.072836161654546
3.616020875,-0.6036098897476364,-1.282318658452909,0.9184158502316363,7.977042128090909
3.626012875,-0.4495869364021819,-1.1987092739983638,0.8786652782225455,7.908022933163636
3.636004875,-0.3086680823658182,-1.1051160027074545,0.8344032803207274,7.8671449902727275
3.645995875,-0.18650369411127277,-1.0393366711438181,0.7810164924298182,7.828924031872727
3.655987875,-0.04397141253127275,-1.0325749775438182,0.7447849953898181,7.74093858209091
3.665979875,0.13726198410509088,-0.9917446467256363,0.7043998808661818,7.692840755072727
3.675970875,0.3093580644141818,-0.9590345409619999,0.6280164310261819,7.62916791629091
3.685962875,0.43699469168509086,-1.0078245110219999,0.529012364317091,7.499243584672727
3.695954875,0.5818703033941817,-1.0763349334838181,0.4742219656061818,7.3742382090181815
3.705946875,0.7549864039032727,-1.1127716983565454,0.4811194076243636,7.3343083744727275
3.715937875,0.902189653957818,-1.1115357936474546,0.527578464906,7.342447922890909
3.725929875,1.020349486194182,-1.1065356269201818,0.5696130231423636,7.360007961563636
3.735921875,1.1297788194850908,-1.1351545262529092,0.5594817638781818,7.399018817563636
3.745912875,1.235163017089091,-1.1605909774656364,0.5100209533872727,7.470979169127273
3.755904875,1.3502828287599997,-1.0971839968492727,0.48242211012545455,7.5871614021818194
3.765896875,1.4463013603181816,-0.9523917159401818,0.49754684105090907,7.702885000236363
3.775888875,1.4932139542272727,-0.796299504722,0.5555939794145454,7.755374442145454
3.785879875,1.4732886313363636,-0.6488997323947272,0.6331025863599999,7.746401206018182
3.795871875,1.4184684968636363,-0.5696264251219999,0.7114218619236363,7.700954389763637
3.805863875,1.4042991836818182,-0.5661797253765455,0.8017450724654546,7.667887526636363
3.815854875,1.4525020879727273,-0.5739312675401819,0.8981984454999999,7.686666077581819
3.825846875,1.4918465031,-0.5546107646856364,1.0044733122454546,7.700005064563636
3.835838875,1.4912519900999999,-0.49658716268909087,1.1344360150636363,7.6843683571636365
3.845830875,1.4491703657563637,-0.3807852653436364,1.2419493167727274,7.671002819945454
3.855821875,1.3880179625381819,-0.23382007138000005,1.2731772344363637,7.675760199872728
3.865813708,1.316254659590909,-0.08651460136181821,1.1926310680545453,7.737576526981818
3.875805708,1.2207164289545456,-0.03217322960545455,1.0409052252545457,7.776350382909091
3.885796708,1.1974017515727273,-0.1369519081636364,0.8375317824181818,7.725787413236364
3.895788708,1.3813772690272728,-0.1767984502363637,0.7462131311636363,7.9112199136
3.905780708,1.5327362947363636,-0.18399121652727277,0.7063363536418181,8.052228202072728
3.915771708,1.5815976805545455,-0.15642739941818185,0.8462826084236362,8.1030341342
3.925763708,1.5703883980454547,-0.18262289365454548,1.036848671550909,8.16955677889091
3.935755708,1.5287975889909091,-0.2708738988909091,1.1211052258236365,8.228490008963638
3.945747708,1.536201918172727,-0.49634112388727275,1.1187220495690908,8.412967032236365
3.955738708,1.6100344444272725,-0.8835774137600001,1.0081142205872726,8.50699540290909
3.965730708,1.7026335030272726,-1.0944531053781819,0.8613957312781818,8.455906465145455
3.975722708,1.869615013190909,-1.0773294386509091,0.7276540686599999,8.324073341745455
3.985713708,2.130235822863636,-0.92156002836,0.4865505738781818,8.10414170690909
3.995705708,2.2769195318636366,-0.7608606817054546,0.15627462700545453,7.764014486745454
4.005697708,2.2185952035745453,-0.6371802273599999,-0.033475792103636395,7.573243012436364
4.015688708,2.077832661556364,-0.5345639209418181,0.021130775478181787,7.475827618672727
4.025680708,1.91748032052,-0.5013404509054546,0.15600941853272723,7.354328619563636
4.035672708,1.8059998796654544,-0.49087555616,0.2856806004381818,7.235980098363636
4.045664708,1.8000604800003637,-0.4302416255345455,0.4278084035290909,7.181956642454546
4.055655708,1.9047714398367273,-0.34589683677454547,0.5552152192927272,7.114085794581818
4.065647708,2.015386428994909,-0.24205950944727272,0.6505517210018181,7.008697708163637
4.075639708,2.051947059158546,-0.08311771350181825,0.7141285898199999,6.969383382945454
4.085630708,2.0143853006312726,0.02449751049818177,0.7552904550981818,6.989547075236365
4.095622708,1.9488762539585456,0.0639368206054545,0.7746485130254545,7.039952693054546
4.105614708,1.8779404064494545,0.10375905423818178,0.7935632882254545,7.103234685054545
4.115606708,1.7929820321403633,0.1564216405563636,0.7952405354618182,7.172592267127273
4.125597708,1.7105596058858181,0.21828987588363633,0.77401763568,7.2273495368
4.135589708,1.5973883416130907,0.2792818687236363,0.7484155700436363,7.300980210563636
4.145581708,1.440224019576727,0.31818856658545447,0.7329238080618181,7.416651211981818
4.155572708,1.2527071306312727,0.31702944113090903,0.7245588238618182,7.558681387999999
4.165564708,1.052436316104,0.2817204393672727,0.7493772031163636,7.700986164472727
4.175556708,0.900750175904,0.20060386114909085,0.8074818714345454,7.773611564490909
4.185547708,0.7972819407767273,0.09260940269454541,0.8700566789727273,7.780335208127272
4.195539708,0.7117392488858183,-0.004090260396363688,0.9378834184090908,7.778090618290909
4.205531708,0.6148256255603636,-0.05569035445090913,0.9800816216127273,7.810307888054545
4.215523708,0.4906094599785454,-0.12055794030545457,0.9933498429709091,7.79212035670909
4.225514708,0.40909192756036356,-0.13886827286909095,1.0016956708836364,7.7802531258727265
4.235506708,0.4215888732658181,-0.0680912782454546,0.9933108433745454,7.8384897784181815
4.245498708,0.48028915624763624,-0.004583286983636434,0.8932411800854546,7.953042608218182
4.255489708,0.6332883471930909,0.006617474543636291,0.6838513430490909,8.1477603772
4.265481708,0.957600442465818,-0.04185131327709098,0.4402671829218181,8.492758994090908
4.275473708,1.3061693929021818,-0.10460592801345461,0.30430293117636364,8.834375314036365
4.285465708,1.444378806593091,-0.12834570861163644,0.2637637239272727,8.975999926890909
4.295456708,1.365261928284,-0.13820061650436372,0.22903599387272722,8.934620566909091
4.305448708,1.1994721125567271,-0.1973518845981819,0.14466003545090905,8.904090247927272
4.315440708,1.0148649150112727,-0.34959377607090913,0.054846655525454514,8.872242875781819
4.325431708,0.8497349522658182,-0.5354129525981819,0.03041803039818178,8.810185741345455
4.335423708,0.7012984500112726,-0.7711123338163638,0.10022497194363633,8.74924590989091
4.345415708,0.5353808566839998,-1.0530288942709092,0.22337652965272725,8.778180766509092
4.355407708,0.36497363297854535,-1.286840071289091,0.32947877605636366,8.819475913272727
4.365398708,0.25041564306945446,-1.4633458027254547,0.3316311361381818,8.805936201272727
4.375390708,0.21327433123309078,-1.590596933707273,0.26024386231999996,8.801862638254544
4.385382708,0.20871475752399987,-1.6887826347618182,0.14250272261090904,8.813403327218182
4.395373708,0.19753697556399988,-1.8348205294163638,0.05314275039272725,8.816591682818181
4.405365708,0.18037747072763627,-2.010467485598182,0.07696546444363633,8.830107121072727
4.415357708,0.18719228361854534,-2.193263842998182,0.20687946526181814,8.8348156102
4.425349708,0.1698853332730908,-2.32361450858,0.4360358653163636,8.892175462854546
4.435340708,-0.027410130890545597,-2.2821077346527274,0.6526122254072727,8.925771781072728
4.445332708,-0.4975016790723638,-2.1080235106727274,0.8989653717527272,8.6981074318
4.455324708,-0.920447201945091,-2.011218613650909,1.0673224447163638,8.557190287
4.465315708,-1.1887829874178184,-1.9212955811472725,1.0472322409709092,8.4712837124
4.475307708,-1.2998776396178182,-1.8065531487745454,0.9517694766254545,8.31223370990909
4.485299708,-1.2372710551087274,-1.7262955424836364,0.9196359488618181,8.269635637254545
4.495291708,-1.1111006649996364,-1.6093705677018182,0.9518485894527272,8.229932888527273
4.505282708,-1.0102186001996365,-1.3998134072290909,1.0244489798054546,8.102191207636364
4.515274708,-0.9323349422178182,-1.2410484045018182,1.0756982223363638,8.029875798672728
4.525266708,-0.9941926047087275,-1.1458927093563638,1.053932642472727,8.013113457254546
4.535257708,-1.164157215454182,-1.048721606538182,0.9953643311454545,7.951913032890909
4.545249708,-1.281067146872364,-0.866198016429091,0.9289812798909092,7.898878010090908
4.555241708,-1.3094341056178183,-0.6768566366654546,0.9096593125818182,7.833586663581818
4.565233708,-1.3300526743996366,-0.5464088913672728,0.9335594769818183,7.8006280412
4.575224708,-1.3677157704905456,-0.4639315703854546,0.9943559708363636,7.837636017636364
4.585216708,-1.4277891498178183,-0.4214911609036365,1.0741685614945455,7.919839480127274
4.595208708,-1.5048548886563637,-0.3592018782200001,1.1192203534399998,8.000565824236363
4.605199708,-1.5761118121109092,-0.3194819389800001,1.1287131804763637,8.028483762290909
4.615191708,-1.6006881697963637,-0.38469266603454555,1.0870984616218182,8.0369470342
4.625183708,-1.566010268669091,-0.45585399813090915,0.9733890090036363,8.016453287527273
4.635175708,-1.4850060579963635,-0.43441996071272737,0.9110140260727272,7.947179005000001
4.645166708,-1.3899700075054546,-0.3603371629836364,0.8838100147090909,7.879599706545454
4.655158708,-1.288107428429091,-0.3292588662709091,0.8145020413199999,7.789255778345455
4.665150708,-1.179995175161818,-0.3611309012509092,0.6998449676654546,7.693685371927272
4.675141708,-1.0892379895072728,-0.43627606364181826,0.5571651608472726,7.638531617127273
4.685133708,-0.9690703403436366,-0.5158107095509091,0.41442364464727266,7.556501612309091
4.695125708,-0.7935733600109093,-0.5948396032054546,0.29174083162909087,7.409949809818182
4.705117708,-0.5842920712818183,-0.6372825748378182,0.2239960754763636,7.188581413632727
4.715108708,-0.35670270376441826,-0.657203693056,0.21262842911272725,7.0093646890327275
4.725100708,-0.19065895940987287,-0.6534493394196365,0.23214720573090905,6.911188561850909
4.735092708,-0.037828923100781946,-0.6091824723832727,0.24278890433090905,6.858911807359999
4.745084708,0.19941007249921802,-0.5803864715105455,0.2087828775023636,6.854254146196364
4.755075708,0.4836369847901271,-0.5728368230741819,0.09999135317509085,6.946679059196363
4.765067708,0.7747217879355817,-0.5940076454196365,0.0014398237405454076,7.0769927613600006
4.775059708,1.0258254781173999,-0.6539210130178181,-0.06389375331400005,7.2061062813236365
4.785050708,1.210242768650127,-0.7039934422723636,-0.06641468200490913,7.314116602687274
4.795042708,1.3017374051410364,-0.7161661226541819,0.00828565610418177,7.354455021196364
4.805034708,1.2233422327228545,-0.7322362965341819,0.14088446446781816,7.223816617287273
4.815026708,1.0077564972137634,-0.7622660811680001,0.3189271949769091,6.9647010760145465
4.825017708,0.7949368135774,-0.8106361201589092,0.4247312771496364,6.744208683832728
4.835009708,0.7436073712501272,-0.8393966071552728,0.4715830321041818,6.6911123789963645
4.845001708,0.8791451177773998,-0.8535736599043637,0.5593881393041817,6.7883203670145456
4.854992708,1.1133707666683088,-0.8776178093378183,0.6927540385769092,6.879339241432728
4.864984708,1.359341972868309,-0.8927115354105455,0.7829959336950909,6.935428593032727
4.87497625,1.5209363156683087,-0.8841355198832728,0.773539423186,6.9694938708690914
4.88496825,1.650001662250127,-0.8506648455196365,0.6715399235678182,7.00064103356
4.89495925,1.8447632089410364,-0.7522046336469091,0.4930665296587272,6.997219578650909
4.90495125,2.0085175344646724,-0.6447847545378182,0.3423105326223637,6.965400153741818
4.91494325,2.0187285909373998,-0.5878893156469092,0.42227838279690905,6.951563769614546
4.92493425,1.8988902622828543,-0.5780313937741819,0.6568032284150909,7.032267477341819
4.93492625,1.7318539158646724,-0.6167169977741819,0.9135030866332728,7.15685744996
4.94491825,1.6084604960410362,-0.6618073813378182,1.113473391487818,7.287778517632727
4.95491025,1.531304476186491,-0.6553914761196363,1.1689856343005454,7.348212138014546
4.96490125,1.5248078156046725,-0.553928920996,1.0802733501914545,7.284056575978182
4.97489325,1.6046354894101271,-0.46288505698145466,0.861180199646,7.195638877541818
4.98488525,1.7056408587010363,-0.47871053018145465,0.629320004555091,7.1009607108509085
4.99487725,1.8158169850828545,-0.5390177821796364,0.4437270009914545,6.989451831905455
5.00486825,1.943949201088309,-0.6098159118196363,0.32566550828781815,6.89358813136
5.01486025,2.0524304615173996,-0.6796246606869092,0.27227230174236366,6.84084512796
5.02485225,2.0742295087174,-0.7480108351323637,0.26213813614236364,6.875784436014545
5.03484325,2.0079913780446725,-0.7563910964960001,0.28517625617872727,6.849541240032728
5.04483525,1.8997784516628544,-0.7242892659323638,0.33253914947872726,6.759939903796364
5.05482725,1.7772464223973998,-0.7413127964232727,0.3744485254714545,6.70581459996
5.06481925,1.6935783000155817,-0.8303735240778183,0.4249179779950909,6.736003037032728
5.07481025,1.5554601559610364,-1.0183747645323635,0.5503332055132727,6.921255886032727
5.08480225,1.412598750561036,-1.1697131867505455,0.7234432621314545,7.094496223778182
5.09479425,1.4065996455064906,-1.0890020597869092,0.846866678167818,7.199454238196363
5.10478625,1.3885680656519452,-0.9474002402596364,0.8979517255678181,7.3228045659236365
5.11477725,1.3554890271610365,-0.8571363363578183,0.9206014629132727,7.397909541014545
5.12476925,1.3345912166155818,-0.8200093661578183,0.9523562027314545,7.44477011676
5.13476125,1.3741673568883088,-0.756492168185091,0.9964714992950908,7.4839520757599995
5.14475225,1.4415254100937636,-0.6871569693669092,1.022050218586,7.521504416905454
5.15474425,1.412455690439218,-0.6013761788396365,1.0621362413678181,7.610414859105454
5.16473625,1.3396300440755817,-0.409051560276,1.154650090076909,7.755350303614545
5.17472825,1.3514859861119455,-0.18661811876145454,1.2424982327860001,7.88559628376
5.18471925,1.4180817697174,0.026363968420363613,1.239812831226,8.076542528614544
5.19471125,1.4564766767464907,0.19174211896581816,1.2034584057859998,8.22962374365091
5.20470325,1.4744406627752178,0.3127098798385455,1.2145640663296364,8.346339015814545
5.21469525,1.4744045349570363,0.43909613850945456,1.2806366782932725,8.433131576214546
5.22468625,1.458763573284309,0.5856336245912728,1.3972846012932727,8.486973343596363
5.23467825,1.4487953596297636,0.7178458788458182,1.525159385656909,8.525834600014544
5.24467025,1.4483070692824906,0.8012352219549091,1.606444868656909,8.523619248032727
5.25466125,1.5883443970988544,0.8033657347127273,1.5502752712460002,8.657118523127274
5.26465325,1.7076630092723635,0.6778067082218181,1.4365487660278182,8.75695100430909
5.27464525,1.7372717810814544,0.4896780090945454,1.2775966311369091,8.832724609872727
5.28463725,1.7077428503396361,0.30860927004,1.0404168625005454,8.954893574254545
5.29462825,1.639687043576,0.14041671645818177,0.7861963167109091,9.112456921272727
5.30462025,1.539386080376,-0.04153620666909096,0.6398987046200001,9.195651885454547
5.31461225,1.3402137079159997,-0.16788960399636368,0.5921365315472726,9.141445230836364
5.32460325,1.0521481463159998,-0.22435226387090917,0.6035597052018181,9.035283276327272
5.33459525,0.7179535125523635,-0.26498616013090914,0.5863731623109091,8.991615050981817
5.34458725,0.38132392800690895,-0.3145303944381818,0.5900315099836364,8.979889155963637
5.35457925,0.036073867879636234,-0.35366130112181826,0.6868791873472727,9.044519523690909
5.36457025,-0.35625695206581826,-0.35471740394000006,0.7673446674745454,9.083251638781817
5.37456225,-0.4147120984112728,-0.35608444043090914,0.7300533998109091,9.034375558199999
5.38455425,-0.39076839881127284,-0.4484025987763637,0.7231058883400001,9.092648128854545
5.39454625,-0.48589399142945466,-0.6355834961945456,0.7469992274672728,9.14982239149091
5.40453725,-0.6390437693567274,-0.7523179261036363,0.793136119121818,9.123550497872728
5.41452925,-0.8470463677749092,-0.810482816758182,0.9438177415672727,9.128621357145454
5.42452125,-1.0596084867385456,-0.8166020767763637,1.1330237529672726,9.175641129254545
5.43451225,-1.3190410571567275,-0.7422680188727274,1.26160466304,9.194885454836363
5.44450425,-1.6039733669203635,-0.6335486438727274,1.377787030730909,9.127713953527273
5.45449625,-1.8366411581749091,-0.48074214527272735,1.5615758945127272,9.121107535327273
5.46448825,-2.0284829455567275,-0.3210913106363637,1.6840624112036364,9.232434246072726
5.47447925,-2.094649639193091,-0.22723248538181826,1.730902499749091,9.284863129709091
5.48447125,-2.005711835956727,-0.1769726050363637,1.7887423276763637,9.298610478254545
5.49446325,-1.813767690411273,-0.1288438753272728,1.8635703157854544,9.313513856436364
5.50445525,-1.6094926388294546,-0.12662451678181824,1.9581902890399998,9.354671446563636
5.51444625,-1.4843572218294547,-0.23360001817818188,2.0741720626763636,9.442587902163636
5.52443825,-1.4423765815621818,-0.32066464462909094,2.1617724588545455,9.454596056945455
5.53443025,-1.4684929549840002,-0.2806208706472728,2.1956363212727275,9.400926858981817
5.54442125,-1.559978844565818,-0.1878012125654546,2.212587944301818,9.410295733054545
5.55441325,-1.658313288153091,-0.06530854038363641,2.2081102316054544,9.42701282850909
5.56440525,-1.7075839020003638,0.049937688089090854,2.1968085258963637,9.407520641272727
5.57439725,-1.7168314290385454,0.16493952419818175,2.2282078825872724,9.395377866963637
5.58438825,-1.7440118402378728,0.27270496316181814,2.242824071878182,9.367364445945453
5.59438025,-1.7843103641324183,0.3661330931254545,2.1956103157999998,9.298182619454545
5.60437225,-1.7917429380215093,0.40934323007454537,2.0984477446,9.275762200381818
5.61436425,-1.766870316539691,0.46951747917454545,1.9867247240363637,9.233248625436364
5.62435525,-1.574091802557873,0.6597250016654546,1.8598582601181817,9.063225219254546
5.63434725,-1.3306108191760548,0.8175661868290909,1.7564082470272726,8.917255567963636
5.64433925,-1.2275566546124181,0.7659999003018182,1.7350700242090908,8.858514916963635
5.65433025,-1.1920906976306,0.8089570333927273,1.731198790027273,8.881271912599999
5.66432225,-1.4373713371215093,1.07968645632,1.721548061590909,9.234397779654547
5.67431425,-1.4229943202124182,1.008619025190909,1.8118565850454547,9.291516151127272
5.68430625,-1.1415596500305998,0.7927877810999999,1.852858483809091,9.465945447872727
5.69429725,-0.861254592799691,0.5628815660090908,1.6995770849727272,9.581853128963635
5.70428925,-0.5474013909269637,0.24746043853636357,1.4177465423909092,9.745360567872728
5.71428125,-0.27480613210878185,-0.03487525031818187,1.1401353292818182,9.828645668054545
5.72427325,-0.11212433476332731,-0.3308934662454546,1.0106188647,9.795425562054547
5.73426425,-0.01962837322332731,-0.6317720473,0.9572634152272727,9.665553636236364
5.74425625,0.06040635847485451,-0.8633319826327273,0.9192376535581818,9.539416544490908
5.75424825,0.12398071033339997,-1.0588703797418184,0.8875631880218181,9.455294923854545
5.76424025,0.20858765370249088,-1.2822954134145454,0.8777726101272726,9.430463764836365
5.77423125,0.3443242906115818,-1.5675916645054548,0.8692778602727274,9.473362847763637
5.78422325,0.5036649543934,-1.861459327669091,0.8030238278199999,9.571375239236364
5.79421525,0.6535341680079455,-2.0947165607600002,0.6834963743654544,9.754040618254546
5.80420625,0.6797062414806726,-2.281886412121818,0.6274800484018183,9.879331425890909
5.81419825,0.7345205499897635,-2.385453996703636,0.6073361140563636,9.9912855844
5.82419025,0.9179024874624908,-2.4574275122854545,0.6522978748381817,10.124500154563636
5.83418225,1.154439628422491,-2.5881594429218184,0.8088050868745453,10.244782427109092
5.84417325,1.2995003630770363,-2.7213564533945456,0.989152130710909,10.282325221654546
5.85416525,1.3207153531679454,-2.7763381835763634,1.125809353310909,10.24501538710909
5.86415725,1.319678508942491,-2.8580998532672726,1.1972723007472725,10.273912500636362
5.874149125,1.4091846190261272,-2.9676444404854547,1.2273222157472725,10.318751365618182
5.884140125,1.6017648353352179,-3.079230460789091,1.2967453992054545,10.29571948789091
5.894132125,1.8364563372988543,-3.202298137536364,1.3632262106054545,10.284292566509091
5.904124125,2.105488504862491,-3.296345668390909,1.3542389550963636,10.217958089054545
5.914115125,2.3323801825534,-3.3462358452454546,1.2925747081936363,10.076967051345454
5.924107125,2.1423994203897636,-3.323523909481818,1.3263289193609091,9.970923263436363
5.934099125,1.8563080755352181,-3.2350629147909093,1.4412729956227273,9.877679154927273
5.944091125,1.6747234260079453,-3.060103410390909,1.5530232907863637,9.855415311472727
5.954082125,1.4945863344624908,-2.937160566372727,1.5998280726590908,9.88103403890909
5.964074125,1.3370885402988544,-2.8116420982818187,1.5246986871136363,9.89764257490909
5.974066125,1.2423295839533999,-2.6847610588454542,1.4121034267500001,9.927557917363638
5.984057125,1.2459690929715814,-2.6146610548581815,1.3624457272261818,9.929892520854546
5.994049125,1.2808279282261272,-2.597339263221818,1.348020013646182,9.90129795981818
6.004041125,1.3372058180879454,-2.639816435749091,1.2212742176516365,9.765309448854545
6.014033125,1.5096434077061271,-2.693412482201818,1.0199737615861817,9.55879911690909
6.024024125,1.627834688655218,-2.7181425153527274,0.7870214288152727,9.315143698094545
6.034016125,1.6091083400006725,-2.669605256625455,0.5403337155043636,9.121340825603635
6.044008125,1.511803644255218,-2.5496736330072727,0.30271506021345457,8.954790901767273
6.054000125,1.449559249582491,-2.3731810843890906,0.11635288997709088,8.850452273385455
6.063991125,1.4819329490734,-2.068065961661818,0.06263133570436362,8.929442001858181
6.073983125,1.5394256757097635,-1.779578236461818,0.12902263685345453,9.083716843549091
6.083975125,1.6122660198406729,-1.6258548306436362,0.24220103470799997,9.20809587934909
6.093967125,1.7281993918224907,-1.5740910570527273,0.3378487624243636,9.232260326421818
6.103958125,1.8088913199952181,-1.6095827949200001,0.4195144314061818,9.222537470185454
6.113950125,1.8091532938497636,-1.6571133651018182,0.5041515171516363,9.277996166130908
6.123942125,1.7382455940333998,-1.679102212921818,0.5659307100243636,9.353716072767272
6.133933125,1.6217521770509087,-1.6541326352854544,0.6488405389152726,9.479719536785453
6.143925125,1.5171443700909089,-1.605434301721818,0.7659389407207271,9.624112614294544
6.153917125,1.4620897383545455,-1.520363129307273,0.9110370230479999,9.714519823385455
6.163909125,1.4310722885636362,-1.462054609770909,1.0381581066298182,9.775238816439998
6.173900125,1.3403055745999999,-1.5060669102872726,1.0296289645207273,9.760647553712728
6.183892125,1.2639640851745453,-1.5494839110872727,0.9180540220298181,9.725503568567273
6.193884125,1.2879984192654543,-1.4770009115781817,1.0791647682116363,9.897249909567272
6.203875125,1.4091527222654543,-1.550571333650909,1.196899699229818,9.89596167284
6.213867125,1.7775771971618182,-1.86304832416,1.2407014681025452,9.491738905258181
6.223859125,1.8681173886581819,-1.8363826818981819,1.149828422557091,9.384639889421818
6.233851125,1.6582313781127274,-1.7164932964254545,1.0790229679389092,9.165149602167272
6.243842125,1.4374000682399999,-1.6665345051527272,1.179350015029818,8.979919151839999
6.253834125,1.2518644497490907,-1.5545323118618182,1.3591118269661817,8.727551241312726
6.263826125,1.13521784504,-1.5107043687345456,1.4767946700025454,8.568661995112727
6.273818125,1.066923806749091,-1.5285847183163637,1.4643156805661817,8.551334498221818
6.283809125,1.0444438459672727,-1.5675450989345454,1.3464164003116363,8.638162329858181
6.293801125,1.0647862720036363,-1.638543958183636,1.1807963133480002,8.793421323058181
6.303793125,1.0648630140399997,-1.7168855488563635,0.9924692579843635,8.967759996403636
6.313785125,0.9991275512127271,-1.7557493760018181,0.7555616826243636,9.116289338876364
6.323776125,0.868840561830909,-1.7233591076199999,0.49189530278799987,9.201904615603636
6.333768125,0.6848650761763635,-1.6266341793472727,0.33367052165890904,9.184143098512726
6.343760125,0.464640834921818,-1.4586436524272728,0.3417878178043635,9.06056384304
6.353751125,0.19173267563090893,-1.2613258732509092,0.4534346066334544,8.908330478530909
6.363743125,-0.13740843298727287,-1.0522131012745455,0.5635574728516363,8.791700601094545
6.373735125,-0.5157155674054547,-0.8335200917218183,0.6190426164698181,8.667479457676365
6.383727125,-0.8816311122054546,-0.6168521110490909,0.7001360769243635,8.48721606164
6.393718125,-1.1560275633690913,-0.44428810457636364,0.8717419479425453,8.31424702853091
6.403710125,-1.3460268293145456,-0.34886991201272727,1.0265182087243636,8.22197387484
6.413702125,-1.4377221847745454,-0.2370049050309091,1.1004618373916362,8.138820887421817
6.423694125,-1.4598140233236365,-0.12334058228545454,1.2598358329552726,8.12230547053091
6.433685125,-1.54316538876,-0.029881568376363635,1.4685421278061817,8.215927539421818
6.443677125,-1.717155637378182,0.1175969898581818,1.5740143206789092,8.246162419912727
6.453669125,-1.893352986669091,0.29546079560363636,1.6390977857516362,8.272254697294546
6.463660125,-2.0152320095236367,0.4448116429309091,1.7970571162543634,8.392447693730908
6.473652125,-2.097104824087273,0.5441935142036364,1.9652684128143634,8.546574039494546
6.483644125,-2.140264876978182,0.6224378390945454,1.9802690831052727,8.585801556367272
6.493636125,-2.1293461691963635,0.6576802623236364,1.9065703730325456,8.521308121385454
6.503627125,-2.0493105125963638,0.63043841416,1.840944594668909,8.428375240494546
6.513619125,-1.8634985294600002,0.5203292516872727,1.8327449165779999,8.34058669224
6.523611125,-1.6186907463327274,0.3147384170872728,1.8987581048689088,8.302046552112728
6.533602125,-1.3977529906054547,0.10580130603272728,2.00324159472,8.320090441749091
6.543594125,-1.2310379752781822,-0.03460074982181819,2.0733487110454543,8.366109428821817
6.553586125,-1.1657661435036366,-0.11470046002181819,2.1158382025854543,8.414245800167272
6.563578125,-1.1969492900963639,-0.13729389930909092,2.1195533054690907,8.387970115876364
6.573569125,-1.1980325545709092,-0.12413985413999999,2.119803856001818,8.389155853887273
6.583561125,-1.1423826257909093,-0.16129119128545455,2.1414868572327275,8.368214693796363
6.593553125,-1.0849222714636364,-0.2750235543581819,2.186275965669091,8.367232450523636
6.603545125,-1.0923759883527275,-0.40918424970363637,2.2422292267418182,8.323762037396364
6.613536125,-1.1765334934618183,-0.6224842022072727,2.215549840872727,8.113911171069091
6.623528125,-1.299515210827273,-0.8224363541236364,2.1302394322818183,7.883418233269091
6.633520125,-1.3962995920818184,-0.9146972416509092,2.0477203900872727,7.7646485762327275
6.643512125,-1.4389571963963637,-0.9407513502145455,1.9956496695781818,7.707308983741818
6.653503125,-1.4399896193309092,-0.9089377661290909,1.9575873043236365,7.680523434105455
6.663495125,-1.377766877949091,-0.864944527529091,1.8964175827054544,7.62742028265091
6.673487125,-1.253859471930909,-0.8425130242181819,1.822291706941818,7.554368166432727
6.683478125,-1.0840933900945458,-0.8568866178363638,1.7519179044145452,7.46080525736
6.693470125,-0.9321463258763637,-0.8656186902181819,1.6865301927781817,7.387410823159999
6.703462125,-0.8129113607854548,-0.8689878239818182,1.6248782565963635,7.345990782341818
6.713454125,-0.7178913582400002,-0.8529710458181818,1.5520398207872728,7.332802758778182
6.723445125,-0.6155468994763638,-0.777327828229091,1.5499855344509093,7.38113265936
6.733437125,-0.5422355381963637,-0.7379110671200001,1.594995944050909,7.401560612432727
6.743429125,-0.5033539461600002,-0.8524360468472728,1.3261953341599997,7.210692333796365
6.753420125,-0.399314135069091,-0.9675117598836365,1.0865815610145455,7.1334808524509095
6.763412125,-0.2730118490563638,-1.0381883524927273,0.9223016026872725,7.152055929287272
6.773404125,-0.22341629878909108,-1.1105448076254547,0.7928010611418181,7.128346819596364
6.783396125,-0.19385429937090923,-1.1571158922436364,0.6460316532145453,7.115953971105454
6.793387125,-0.1104120602436365,-1.1776946786981817,0.5043328018690908,7.177705677323636
6.803379125,0.01886996286545439,-1.1528197515345455,0.39346576582363624,7.294911571850909
6.813371125,0.07149589244727257,-1.1401550226436363,0.42825607967818174,7.305776585832727
6.823363125,0.10754129255636348,-1.1555027942981817,0.5696805663763636,7.276783307887273
6.833354125,0.15123713113818166,-1.203006403498182,0.7500848570254545,7.2339831227963645
6.843346125,0.17903999306545437,-1.278215927770909,0.9138495161527271,7.188833528614546
6.853338125,0.23554519408363617,-1.3716303433163637,1.0458828775890907,7.1898597871600005
6.863329125,0.39506866174727256,-1.4726011050981815,1.1792005425709091,7.22474331825091
6.873321625,0.6009142329290907,-1.5685658422072728,1.341615558098182,7.243046890069092
6.883313625,0.7724246029836361,-1.6744768739345455,1.4816107965890906,7.264132271341818
6.893305625,0.9461378636927271,-1.8181380827454547,1.5361208797890908,7.327163438087273
6.903296625,1.1234344735654545,-1.9673374871763636,1.531126687850909,7.360762762887273
6.913288625,1.3093046750199997,-2.105295204898182,1.5278198960327272,7.33517926286909
6.923280625,1.5649412861836363,-2.1898241384327273,1.4858110974327272,7.277260764687273
6.933272625,1.7730735811472724,-2.240936170741818,1.3552654378509092,7.251371369596364
6.943263625,1.8736476465309089,-2.255970542250909,1.1798043699781815,7.223990284978183
6.953255625,1.9349177010581815,-2.2406721849054545,1.077944081941818,7.1746293341600005
6.963247625,1.978948319312727,-2.258645430796364,1.1164530096745453,7.175424815323637
6.973238625,1.9490282443963636,-2.3212433295236363,1.1124673667472726,7.206558769869091
6.983230625,1.8993015477236364,-2.417728755941818,1.0290714641654544,7.184542109323636
6.993222625,1.8924479837236365,-2.5735768698309087,0.9708403405109091,7.200427076232727
7.003214625,1.91687164936,-2.765667440303636,0.8650193266545454,7.1853100529236364
7.013205625,1.9812733237599998,-2.942250238049091,0.6672646567272726,7.106393147669091
7.023197625,2.070434926523636,-3.0944070259581817,0.4651693035999999,7.000160427160001
7.033189625,2.15221182016,-3.2054069745218183,0.32522726945454544,6.907644864614546
7.043180625,2.2059708869781818,-3.2689274044054546,0.255175927590909,6.851627230596364
7.053172625,2.2246270291963635,-3.271233599405454,0.2345614518636363,6.829291922596364
7.063164625,2.183960847005454,-3.214373094987273,0.23413398319090903,6.800358715887272
7.073156625,2.0962417045145454,-3.0950244812781817,0.21790301620909086,6.712859671814545
7.083147625,1.9831387357327273,-2.9539052697301815,0.18161503108181812,6.608896870305454
7.093139625,1.8464345068963632,-2.8338721171665457,0.16367993562727265,6.555213554178182
7.103131625,1.7241716940781817,-2.710873969130182,0.18628239557272722,6.59966420506909
7.113123625,1.6412914348163634,-2.601469162262909,0.2556568451545454,6.723737063341818
7.123114625,1.5934497475781817,-2.513630417626546,0.3428278510654545,6.844572145654546
7.133106625,1.5793656695361815,-2.389335601681091,0.42130359279999996,6.9577947208909094
7.143098625,1.5608747709798179,-2.2126881762629096,0.485731755090909,7.038961357127272
7.153089625,1.5393654652761817,-2.046233362026545,0.5388223575818182,7.136879369218182
7.163081625,1.5126465296307272,-1.9069914787956366,0.6125560685599999,7.275805553981818
7.173073625,1.5005492105416363,-1.7783003221338183,0.7216134232418182,7.426719312145454
7.183065625,1.5005654152870909,-1.6668616091338182,0.8225286776363637,7.5598470627636365
7.193056625,1.4794226303289089,-1.555602033552,0.8869856507454545,7.689598806509091
7.203048625,1.4502733353816362,-1.4283272851520001,0.9317874529636364,7.8190851815454545
7.213040625,1.381065446399818,-1.2984940928429092,0.9740186384363636,7.949755269745455
7.223031625,1.284690234690727,-1.1620612758065454,0.9988776505272726,8.061590087527271
7.233023625,1.1790976263816362,-1.0366118473883636,1.0134388866181818,8.159568712054545
7.243015625,1.0763620101634543,-0.9403116182429091,1.0364826146727273,8.247193721109092
7.253007625,0.9704990265998179,-0.8628688084065456,1.0607143481090908,8.318932396963637
7.262998625,0.866309191908909,-0.8062041325520001,1.100225148409091,8.374683239181818
7.272990625,0.7890932779634544,-0.7706852529701818,1.1403839531,8.397335041436364
7.282982625,0.7500873262543635,-0.7503754065519999,1.1362983918999998,8.398778433763637
7.292973625,0.7027183199634545,-0.7713655074247272,1.0621654171000001,8.395477933145454
7.302965625,0.6175831258543635,-0.8615231727338182,0.9517124808818181,8.41462911030909
7.312957625,0.5879394328725454,-1.039921488342909,0.8361761348272726,8.54396941269091
7.322949625,0.6809390363634543,-1.3665792419792726,0.6150703753727272,8.939564942763637
7.332940625,0.738752153199818,-1.8471353607247272,0.3489277955181818,9.477865115418181
7.342932625,0.6495023558361818,-2.1875783398883635,0.18783497364545448,9.789766174072728
7.352924625,0.4181672513452726,-2.2569206723065456,0.14289292331818174,9.774819176981817
7.362916625,0.1541327627452726,-2.1048352629429092,0.11262177891818173,9.821728685018183
7.372907625,-0.15327475560018197,-1.8254932634338181,0.08230506343818174,9.952242767490908
7.382899625,-0.46852359205472743,-1.5449354683247272,0.15188982938909082,10.024040672218183
7.392891625,-0.775304086891091,-1.312625632979273,0.323964328170909,10.040100839127273
7.402882625,-1.0619731366365455,-1.1182149192920001,0.5868003289163635,10.031819553854545
7.412874625,-1.3572515629274546,-1.0578833162738182,0.83653397388,9.999584403127272
7.422866625,-1.5839472101092729,-1.1801212519101818,0.8072697332981816,10.071851955672727
7.432858625,-1.6422448910365455,-1.3756259477283637,0.7488378800254545,10.249184169309089
7.442849625,-1.7269660730583638,-1.402599015292,0.9460657397345453,10.31845885330909
7.452841625,-1.9006749696038185,-1.209396198110182,1.0724281524072727,10.339552820818183
7.462833625,-2.0467347009674546,-0.9483106411101818,1.1275576896436363,10.402472306272726
7.472824625,-2.190990752349273,-0.6878537023101818,1.291079943170909,10.518556989509092
7.482816625,-2.2648930073147273,-0.4182301366738182,1.6326537631527271,10.721029279181819
7.492808625,-2.2822503972118184,-0.14242172654654545,2.033592513807273,10.972365329818182
7.502800625,-2.3139364056845455,0.10842540901709093,2.322518535552727,11.168262323418183
7.512791625,-2.38267278583,0.29977856052618185,2.3979543577163636,11.245389945127272
7.522783625,-2.4290500246118185,0.3889313233570909,2.3071221257163637,11.17617173530909
7.532775625,-2.39098227463,0.36733821508436365,2.2069984872981814,11.130189771454546
7.542766625,-2.262189102648182,0.25341106522981816,2.1810581177163635,11.19134611472727
7.552758625,-2.0858140671209093,0.11806025942981817,2.2251299402454543,11.322716509745455
7.562750625,-1.922132954048182,0.04233024788436362,2.2963333058454545,11.421400209
7.572742625,-1.8011162254118183,0.05723255737527272,2.356925936527273,11.428485985418181
7.582733625,-1.718956689957273,0.1456615731170909,2.390666388130909,11.3781337754
7.592725625,-1.6781002612900002,0.26160919104436364,2.376026384732727,11.355705355709091
7.602717625,-1.6649739266172727,0.392314883608,2.317542758372727,11.364603172127271
7.612708625,-1.6583148755809092,0.5314108203352728,2.2293622121,11.385445545636365
7.622700625,-1.6519831888718184,0.657197367317091,2.1344724217363633,11.410992437527272
7.632692625,-1.6340415179445456,0.7524358165145455,2.055867191412727,11.426453001109092
7.642684625,-1.5975566344718182,0.8184317767872727,1.9995450454454542,11.429565437072727
7.652675625,-1.544898872126364,0.811808476150909,1.9500690800454543,11.3755225636
7.662667625,-1.481903131491818,0.752393503950909,1.9017655983181818,11.283100299563635
7.672659625,-1.431664351619091,0.6765870002236363,1.851410014990909,11.193725909436365
7.682650625,-1.4194237438607273,0.5698768029492727,1.7968125850272723,11.092674582054546
7.692642625,-1.4054470180316365,0.4543892333183636,1.7369595553727273,10.979797037181816
7.702634625,-1.3696418840207274,0.3570915223365454,1.6658225317454542,10.871044776472727
7.712626625,-1.3333263119934549,0.2745596149365454,1.5747185198207272,10.764494617254543
7.722617625,-1.2992347364098182,0.20070188186381818,1.457169326929818,10.664441552254546
7.732609625,-1.264514756573455,0.11715309051836362,1.318899686838909,10.560076846072727
7.742601625,-1.221105032877091,0.010686764645636353,1.171217486038909,10.442868940036364
7.752592625,-1.1711716663698184,-0.13439520062345456,1.0269045784570907,10.299036145745454
7.762584625,-1.1047489337789091,-0.31369707058345453,0.9028701842025453,10.13823499689091
7.772576625,-1.0117754141970912,-0.5145259965289091,0.7998759881589089,9.99757427081818
7.782568625,-0.8791846803061819,-0.7281685640198182,0.6971949743043635,9.899576164363637
7.792559625,-0.7022011516334546,-0.9460586446198181,0.5758773638679999,9.863202152036363
7.802551625,-0.4957761585789092,-1.1702790910016363,0.43763634854072714,9.882148981709092
7.812543625,-0.28845504783345466,-1.4008736084198181,0.30932299110436356,9.931106813690908
7.822534625,-0.12272994217890923,-1.6228052419652728,0.23468167797709077,9.99069970521818
7.832526625,-0.01580217532436377,-1.809149424019818,0.2350642400316362,10.0599007518
7.842518625,0.05235726536654532,-1.9322969312016363,0.30306953748618165,10.102775313145456
7.852510625,0.11050725093018168,-1.9695090156016366,0.41142733128618164,10.082133477581818
7.862501625,0.13790957858472713,-1.8783059957652726,0.5031081378134543,9.987965131909089
7.872493083,0.11572979260290894,-1.5960537519652729,0.6613444458679999,9.693152328090909
7.882485083,0.12467198202109075,-1.187142535365273,0.9054905127407272,9.254403439363637
7.892476083,0.20731172534836348,-0.9405393939470911,1.1184081504752725,8.988828575727272
7.902468083,0.3613050280029089,-0.9797568500743639,1.2736466442825454,8.984690334272727
7.912460083,0.6015725570756362,-1.1952277355834546,1.3374406786861817,8.967417352618183
7.922452083,0.8835126233301817,-1.4971435808925455,1.340714066958909,8.842442943563636
7.932443083,1.1233161810938181,-1.768660581256182,1.2360481785407271,8.725838246872726
7.942435083,1.3406245541119999,-1.9468520118016366,1.041849484849818,8.632952506454545
7.952427083,1.5311570117119997,-2.0295509794707276,0.790416522068,8.509745155654544
7.962418083,1.659464197675636,-1.960870222288909,0.6061924234498182,8.349277675727272
7.972410083,1.6771443332756362,-1.7362518782161818,0.7696537396861818,8.123918452290908
7.982402083,1.5507234750392727,-1.4886720817980001,1.0028447823407272,7.931070457927273
7.992394083,1.442659261952,-1.4723067351980001,0.9736773822861817,7.923667535927273
8.002385083,1.4491422294065452,-1.697473069707091,0.9228116453407272,7.9623267184909094
8.012377083,1.501562204115636,-1.9723816252343638,0.8260719527461817,7.920616058745454
8.022369083,1.5399741850065451,-2.2637773727616364,0.6365596774734544,7.8134542386
8.032360083,1.5280712772065452,-2.5716226561979996,0.33723067229163634,7.605250630418182
8.042352083,1.5045245975745452,-2.870168177016182,-0.002010828915636386,7.349505250163637
8.052344083,1.5228925066109091,-3.1235568207980005,-0.24619423291018186,7.153694422581818
8.062336083,1.5740405524472725,-3.2941961577070913,-0.3357407871283637,7.0624635271272735
8.072327083,1.6049607510654542,-3.332102976374364,-0.3125254805101818,7.061759438854546
8.082319083,1.5910537865199996,-3.2040999625634545,-0.27846439152836366,6.9991291812545455
8.092311083,1.51340514672,-2.9385169504470907,-0.2738639617283637,6.831891349709091
8.102302083,1.3567912017381818,-2.634654237410728,-0.25230456001927276,6.651852609436364
8.112294083,1.1817856532109088,-2.398404707610727,-0.20004239103745455,6.542041880163636
8.122286083,1.058236511410909,-2.259769924828909,-0.128717791392,6.545810064472727
8.132277083,0.9923092585745452,-2.1904212774252727,-0.04755308261381821,6.638791504272726
8.142269083,0.9748585404709089,-2.148916975279818,0.047037853902545425,6.722130693454546
8.152261083,0.9795712288527271,-2.1106647562616363,0.15564463146254542,6.788994540054546
8.162253083,0.9845397089981816,-2.064470572534364,0.2800762403534545,6.857564231236363
8.172244083,0.9782488943254543,-2.009872387734364,0.41002364471709085,6.938592352272728
8.182236083,0.9582015453618179,-1.9431044355161817,0.5282599259861818,7.0395890374727275
8.192228083,0.931233680452727,-1.8803231574798185,0.6250660456079999,7.1395011152727275
8.202219083,0.9113986997072725,-1.7893416832616365,0.7035315228261819,7.258754292581818
8.212211083,0.8699120906909088,-1.6564823761161818,0.7707558555170909,7.411106443672728
8.222203083,0.791652900581818,-1.4892041570434547,0.8313235690807272,7.586155379200001
8.232195083,0.7075543752672725,-1.2932779513327275,0.890172764698909,7.776492726109091
8.242186083,0.6131039181036362,-1.1041338672109093,0.9531621504625454,7.966499858581818
8.252178083,0.5084983516854543,-0.9464305699381819,1.023074756508,8.140272123618182
8.262170083,0.4123139372672725,-0.8166576039563637,1.1024982269236363,8.295655072218182
8.272161083,0.33553559173818165,-0.7103100935200001,1.183766180250909,8.4181428354
8.282153083,0.29164429137454523,-0.6197494381018182,1.2495758003781818,8.504186125927273
8.292145083,0.2863701892363634,-0.5478807151563636,1.2794548863054545,8.55627883178182
8.302137083,0.31979342938363614,-0.5037199697781819,1.2406170845963638,8.6189128854
8.312128083,0.3634331825381816,-0.5144358642363637,1.0984553490690907,8.766201034254546
8.322120083,0.4208752297745452,-0.6295768322,0.9120537792036363,8.979389635236364
8.332112083,0.5597723823563634,-0.9531107374181819,0.6676358113672726,9.389743813327273
8.342103083,0.6403674579563634,-1.5027179228181817,0.3971088774763636,9.9597518062
8.352095083,0.5541378298654542,-1.965224367309091,0.24309538067636355,10.35914725910909
8.362087083,0.3847037489454543,-2.1073219774909093,0.13995841687636357,10.458809496381818
8.372078083,0.11815027985454522,-2.0380209370545455,0.0729171126399999,10.452190155509092
8.382070083,-0.2309972365636366,-1.8775647494727272,0.07675902036727263,10.521982823418181
8.392062083,-0.605203750527273,-1.7052483673272725,0.21418589594909082,10.654055899145455
8.402054083,-1.009524966618182,-1.5796939229272728,0.43412639309454537,10.812001439072727
8.412045083,-1.3944900383818184,-1.5834071068545454,0.66860897404,10.94743877929091
8.422037083,-1.6342241578727275,-1.7287574911999999,0.7231776941854545,11.036508312563635
8.432029083,-1.7114103280909094,-1.8598027474363634,0.6855012345490908,11.128813884381819
8.442020083,-1.765867175036364,-1.8136553095454546,0.8873960468145454,11.150682134927274
8.452012083,-1.9299807481818185,-1.560307670690909,1.1380267822254544,11.2399085842
8.462004083,-2.1392016777636367,-1.248033089509091,1.2160592757854545,11.299381283672727
8.471996083,-2.3017184348,-0.9662669300727272,1.3347953670763635,11.353498937272727
8.481987083,-2.3768225311454554,-0.7062751213272728,1.6577202688945454,11.534001056690908
8.491979083,-2.406248954878182,-0.43788411687272727,2.1055823935854545,11.809458964381818
8.501971083,-2.4826473988418187,-0.19181844090909095,2.435181041458182,11.991269618272726
8.511962083,-2.6050593369327273,-0.010699543381818201,2.5385443403309087,12.055792667745454
8.521954083,-2.6517835920236363,0.055202787018181806,2.476393301761818,12.018358876672727
8.531946083,-2.574925305094546,0.0017023265999999572,2.402672218107272,12.012829585945456
8.541938083,-2.368518199203636,-0.12087265309090911,2.382352038052727,12.099686691218182
8.551929083,-2.0727478625309095,-0.26108595014545455,2.415737172961818,12.265641582127273
8.561921083,-1.815404975458182,-0.3410525989636364,2.467828993956364,12.407870197145455
8.571913083,-1.671400497876364,-0.30079560358181817,2.524838573143636,12.421608950345455
8.581904083,-1.614318795947273,-0.15615368912727273,2.5913203466709094,12.360583846527273
8.591896083,-1.6022996926709094,0.04779358881818183,2.644558245841818,12.343584967672728
8.601888083,-1.6150585537800004,0.2601096675818182,2.646666876725454,12.364260748599998
8.611879083,-1.6287211897800002,0.4465826159636363,2.595639623750909,12.394975356727272
8.621871083,-1.6378459930527276,0.6014216280000001,2.5226408120945454,12.422353096018181
8.631863083,-1.6428748961981818,0.7109424755345455,2.4379795786654546,12.44109628087273
8.641855083,-1.6301583981800003,0.7754082194727273,2.3467304468290906,12.438607613654543
8.651846083,-1.5973602173981822,0.8005004716909091,2.2496634616672724,12.40115856601818
8.661838083,-1.5638387639618183,0.7809835715090909,2.1585791030436363,12.330007533218183
8.671830083,-1.520382964207273,0.7248394360509091,2.081982183330909,12.22893985008
8.681821083,-1.4741911645436367,0.6203353188327273,2.010949474021818,12.130410111443636
8.691813083,-1.4214297815436368,0.5017181280145455,1.9389092256763636,12.031782099534547
8.701805083,-1.3583216175618185,0.38724501839454545,1.8656329503490907,11.919236448207272
8.711797083,-1.2895810779254548,0.28732826510363635,1.7930042275854543,11.802788412461819
8.721788083,-1.2262343847618187,0.20465727901272732,1.7157316461490908,11.690473699243636
8.731780083,-1.1707439972490914,0.12214277504909095,1.6213480797981816,11.569780616261818
8.741772083,-1.1234288358340003,0.020483232558181855,1.498635636010909,11.429240212352726
8.751763083,-1.0803418943985457,-0.11423439413272725,1.343428153701818,11.285816460807272
8.761755083,-1.0275602906676367,-0.28026792180727267,1.1719342196472726,11.145180003225455
8.771747083,-0.9457242923040002,-0.4604863161727272,1.0211118301381819,10.97734318677091
8.781738083,-0.8243696689949094,-0.6454423904963636,0.9010368194836362,10.803573128498181
8.791730083,-0.6537899258494548,-0.8375762091387273,0.7898142248836362,10.678001613480001
8.801722083,-0.4360386209221821,-1.0491425898841817,0.6819507201381817,10.606765215989093
8.811714083,-0.20086351701309116,-1.2922770672659998,0.5844799289199999,10.571228708916363
8.821705083,0.012052315986908852,-1.5615220841387276,0.5083699015363635,10.556678684316363
8.831697083,0.17534923509599978,-1.8303908805387274,0.4542730410818181,10.565501983516365
8.841689083,0.2725269333014543,-2.0648126345023634,0.42600287500909084,10.60395660248
8.851680083,0.31894013513781794,-2.2301021305569093,0.44641432477272724,10.641026952698182
8.861672083,0.3612857134105452,-2.2978171403205456,0.5419879363727272,10.614384154207274
8.871664125,0.39533075444690885,-2.240099136393273,0.6667859850090909,10.524275773861818
8.881655125,0.3238191795014543,-1.970048734666,0.860741881081818,10.210936038043634
8.891647125,0.2714926806105452,-1.4962657647569089,1.1189231048454544,9.707043114043637
8.901639125,0.34966225150145425,-1.1300530536841817,1.3189897053545454,9.34592630658909
8.911631125,0.47877705887599975,-1.0521806329932726,1.4917288837236364,9.24279486658909
8.921622125,0.6904693619850907,-1.148117420466,1.5882139167963634,9.22418797277091
8.931614125,0.9917131017123635,-1.3290840033387272,1.5695446396145454,9.139863937225455
8.941606125,1.3211261590396361,-1.513194463975091,1.4242692059236364,8.986446701170909
8.951597125,1.669994167948727,-1.6311799216114544,1.2185043901054544,8.780083439734545
8.961589125,1.9807903869123635,-1.616891272084182,1.0041421047963635,8.582614147043637
8.971581125,2.1169203713305453,-1.4680381929387272,0.9967173581963635,8.417461786589092
8.981572125,2.058169908610545,-1.3067404316296365,1.1401372258327271,8.242054715352728
8.991564125,1.9505207654469088,-1.306109144956909,1.0769923997781818,8.186019177443637
9.001556125,1.9360499964287272,-1.5507487487932727,0.9445821375418181,8.118912659807274
9.011548125,1.9547007964105454,-1.8935232041750907,0.9328552541781816,8.110780346352728
9.021539125,1.9481296954650906,-2.2086043531932726,0.8388603057436362,8.100903375989091
9.031531125,1.9037424369378182,-2.487480233938727,0.5323188955254545,7.9377396141345455
9.041523125,1.8526812727614541,-2.769028292229636,0.12474423550727269,7.654132469607273
9.051514125,1.8795958309978178,-3.024184081538727,-0.15361148749272732,7.459399488716364
9.061506125,1.9763599011614543,-3.2003263287750907,-0.22782688411520005,7.390085581952728
9.071498125,2.0185161120523634,-3.228422997338727,-0.20136016943701823,7.383829006389091
9.081489125,1.9661782036869087,-3.0889042006114544,-0.21268362680065456,7.26927281728
9.091481125,1.817358799177818,-2.8220570631205457,-0.25791141461883643,7.031030046061819
9.101473125,1.5776320790141816,-2.509344546795091,-0.27520990776429094,6.750919452661819
9.111465125,1.3243610812869089,-2.2611644432678184,-0.2378952791642909,6.55420428298909
9.121456125,1.142267405068727,-2.1415861190496366,-0.18438376218792726,6.513939257825454
9.131448125,1.0439070609778178,-2.119206368922364,-0.15184042966065456,6.556489476770909
9.141440125,1.0121989952287271,-2.1452012186132725,-0.11046734698792733,6.567816182570909
9.151431125,1.030940126719636,-2.1894367445587273,-0.025765195004290965,6.563758395989091
9.161423125,1.0763302970469089,-2.2154945102678183,0.09428397095207268,6.570503873189091
9.171415125,1.115498089028727,-2.2089986895587272,0.21587027422661811,6.602347637152727
9.181407125,1.146973855537818,-2.162820112595091,0.33672720245570903,6.667372454589091
9.191398125,1.1523571424832724,-2.0890738806132725,0.4620678819648,6.764384954261818
9.201390125,1.138431227628727,-2.0020666100496363,0.585430960053891,6.881039396898182
9.211382125,1.1239052197014543,-1.8868723048678182,0.6958358109138908,7.023983288061818
9.221373125,1.0901567281832725,-1.737369812664182,0.7850588041175272,7.1994404808
9.231365125,1.0377142815741816,-1.5471607273732726,0.8577332520993454,7.366287079654546
9.241357125,0.9579815240105453,-1.3535617453732727,0.9257688062266182,7.5279726438
9.251348125,0.8672970910105452,-1.1836506100623634,0.9948202768811635,7.689978673
9.261340125,0.7748525211741816,-1.0548698953169091,1.0605115121720727,7.832775360654546
9.271332125,0.690429908628727,-0.967184454026,1.1215624502811636,7.9471627746
9.281323125,0.6127266717887271,-0.898098899426,1.1871954911411635,8.050106966309091
9.291315125,0.5382475471372725,-0.8200411644987272,1.2690069165829816,8.161279032363637
9.301307125,0.4834965214472725,-0.7339731800078181,1.3605457580193454,8.238444905745455
9.311299125,0.46179053401454523,-0.6666707285150909,1.433369038917527,8.2478840118
9.321290125,0.45859457351999977,-0.6472374647678181,1.4213711211720725,8.263442588836364
9.331282125,0.451777392501818,-0.7029597182987273,1.2879251814993453,8.378008951709091
9.341274125,0.4211369193563634,-0.8556049081836363,1.1157780549175271,8.532401435272726
9.351265125,0.41580234504727254,-1.1638597412563634,0.8799100533720727,8.828771668218183
9.361257125,0.4426568630290907,-1.63108707882,0.5554281523902544,9.314466017836365
9.371249125,0.37238424390181796,-1.9769157900563636,0.33445970408298176,9.644740125163636
9.381240125,0.236035621452727,-2.000799359001818,0.2175598511375272,9.674008877618183
9.391232125,0.0328992885254543,-1.824397941892727,0.19872905791934536,9.651725192436365
9.401224125,-0.234910550547273,-1.5614393409836362,0.24322898964661807,9.743303326345453
9.411216125,-0.538272624947273,-1.337166078310909,0.41343719539207263,9.843161705927274
9.421207125,-0.8930231241836367,-1.2152786142018182,0.6382984540829818,9.93145481427273
9.431199125,-1.2671209225109092,-1.166025018401818,0.8309262879920726,10.001189026818182
9.441191125,-1.5898936265654549,-1.1760425214199999,0.9329840365011636,10.013830875181817
9.451182125,-1.825637388147273,-1.2897140308563635,0.8492658752284362,10.10543758790909
9.461174125,-1.8906718322745457,-1.4712009840927274,0.7533196152593454,10.268684670272728
9.471166125,-1.9125311430018186,-1.5204753215654545,1.0055608440411636,10.408560607145455
9.481157125,-2.0503907763290914,-1.3613221700381817,1.2380923632047998,10.469418787418183
9.491149125,-2.212865013474546,-1.1457573782563635,1.3480484668411636,10.495566847145454
9.501141125,-2.3405560092200006,-0.9357397655290909,1.5276901344411633,10.573363906036363
9.511132125,-2.40028920816,-0.710762306710909,1.8742788880048,10.775585963454546
9.521124125,-2.435110174710909,-0.46654576487454535,2.237214415313891,11.022887712818182
9.531116125,-2.5138203632272735,-0.2393650114199999,2.405008348259345,11.160163137872727
9.541108125,-2.6202201424636367,-0.056899181183636294,2.345770116113891,11.146174479963637
9.551099125,-2.654155936263636,0.05651869738000006,2.2257412373448,11.0485459738
9.561091125,-2.5980870491727277,0.08802498370727276,2.2074786180720727,10.992355545436363
9.571083125,-2.4932040709072734,0.050112891889090926,2.2399169877793454,11.005232695618181
9.581074125,-2.377046941925455,-0.025391193801818156,2.2881125644702545,11.069581743109092
9.591066125,-2.275634784489091,-0.043849088819999965,2.353568598161164,11.093162345363634
9.601058125,-2.2210361585072733,0.017570553434545486,2.409613431942982,11.046504356709091
9.611049125,-2.195870234705455,0.13961960268909093,2.4344155320199996,10.985636920254544
9.621041125,-2.1918648813600003,0.27823811958,2.415523882561818,10.966283953690908
9.631033125,-2.1917110092145458,0.41118796288909093,2.3555657252800004,10.967153503836363
9.641025125,-2.19160763576,0.5166744229800001,2.271953391969091,10.967791053490908
9.651016125,-2.1672113457418183,0.584431192509091,2.19245512238,10.947364533163636
9.661008125,-2.096278226476364,0.6263861555090909,2.1316105325327275,10.92071127449091
9.671000125,-1.990044513494546,0.6490276482909092,2.09599486026,10.901675437727274
9.680991125,-1.8605807376400003,0.644333280309091,2.0913157800963638,10.904367155709092
9.690983125,-1.7238384753309095,0.609638199,2.101463596278182,10.9251106618
9.700975125,-1.6165334275127274,0.54089432378,2.09995801266,10.921435057309091
9.710966125,-1.5207441599672729,0.4508356146054546,2.0696599311872728,10.885504030090909
9.720958125,-1.4039729510763639,0.35449026620909097,2.00355737086,10.823255553727272
9.730950125,-1.2973367184036366,0.24021241108181823,1.89267811946,10.722904808690911
9.740942125,-1.2067103881309094,0.1297113469545455,1.739264988169091,10.612026423381819
9.750933125,-1.152174274187273,0.03433627490000006,1.5550104414963637,10.519059735272727
9.760925125,-1.1427889641690911,-0.044504965645454496,1.3628561470054545,10.45322693690909
9.770917125,-1.1653419566781822,-0.13323900406363634,1.1850605304418182,10.38104143049091
9.780908125,-1.177853459296364,-0.2541823767363636,1.0356242287327273,10.269417920781818
9.790900125,-1.146055822169091,-0.40866585679090905,0.9101798953690909,10.10879446129091
9.800892125,-1.071178031696364,-0.60115680206,0.8106388628854545,9.931878139145455
9.810883125,-0.9474844530236366,-0.8144875534781818,0.7332234499127273,9.8065374944
9.820875125,-0.7850135115872731,-1.0237920504054545,0.6598911263672728,9.722056445036364
9.830867125,-0.5957624128418185,-1.2226649445145452,0.5670094505963637,9.6670752922
9.840858125,-0.39280018875090933,-1.4216640002781817,0.4488199145054546,9.649705904763637
9.850850125,-0.20280085902363668,-1.614795523969091,0.34360978319636365,9.68938076921818
9.860842125,-0.04261554503090937,-1.778196645769091,0.2906875220436364,9.788720984818182
9.870834125,0.09141407168181788,-1.8969889341145456,0.3106877876436364,9.898936203345455
9.880825708,0.19423585724545425,-1.9494701397872727,0.4108737839527273,9.913393990563637
9.890817708,0.2515693057363633,-1.9033151430236361,0.5258314896072728,9.839890789763636
9.900809708,0.21450175388181786,-1.6822537558781818,0.6962495040072727,9.570879520090909
9.910800708,0.11760781969999967,-1.270302104041818,0.9604201157345454,9.080598282163637
9.920792708,0.1400085188272724,-0.9771653108781819,1.135810081498182,8.76290929089091
9.930784708,0.25937630609454515,-1.0267664331872728,1.2387975399527273,8.78262360270909
9.940775708,0.45777962625818147,-1.260437617278182,1.2692512264436366,8.845347092927273
9.950767708,0.7297129590036362,-1.5534128997327274,1.2400503856436365,8.772828876254545
9.960759708,1.0282233115309087,-1.797412956387273,1.0900999116799999,8.67382268689091
9.970750708,1.3490100034945451,-1.9201724955145456,0.8804366933709091,8.555210938927273
9.980742708,1.6692068390218178,-1.9505822481690909,0.69782812728,8.431769494727273
9.990734708,1.906156519712727,-1.8971421416418182,0.6194999639527273,8.325405658400001
10.00072671,2.0210390460581817,-1.7185066948781818,0.7549568700618182,8.116600015072727
10.01071771,1.9661042158018178,-1.4943900949872728,0.9796220450254546,7.920032199945454
10.02070971,1.8719211810563634,-1.461514911696364,0.9185227663163636,7.846679350309091
10.03070171,1.8626145134199994,-1.6796466843145454,0.8738337304072726,7.881652577763637
10.04069271,1.881977552110909,-1.9703166966781818,0.8691760616800001,7.92560175009091
10.05068471,1.9229068071799997,-2.25220864566,0.7277242405781819,7.8860354019090915
10.06067671,1.9426717754963634,-2.5370763702781822,0.41628931165090916,7.7126553721999995
10.07066771,1.9582375658927271,-2.825564924696364,0.07801081234181816,7.500172303
10.08065971,2.0294207054599998,-3.0730640296236365,-0.12660735652727276,7.375461234054545
10.09065171,2.1428032402599997,-3.2383232689872727,-0.16054165661818187,7.326375314781818
10.10064371,2.199214588150909,-3.2755518106600006,-0.11657754777636369,7.3175257602
10.11063471,2.181418730841818,-3.1817693394236364,-0.10372549534000002,7.263779436818182
10.12062671,2.0963677539036363,-2.995671718470909,-0.07498542043090911,7.163920460745454
10.13061871,1.9635297625218178,-2.7804602580254545,-0.02590893148545458,7.0558146147272724
10.14060971,1.818274639921818,-2.6257310885890908,0.03478553376909089,7.031914015236364
10.15060171,1.7215605767399997,-2.5296401791345455,0.10612065575090907,7.107081389909091
10.16059371,1.6689667862472723,-2.4691472248800004,0.19443377171454543,7.2238689075090905
10.17058471,1.6548029721199997,-2.4127049983709092,0.3026860365727272,7.322715437654545
10.18057671,1.6503364860654541,-2.3531705409709094,0.41141198170909093,7.4103256531272725
10.19056871,1.6374142085745451,-2.2831461255345453,0.5162382685654545,7.505407987236363
10.20055971,1.5897779792109088,-2.20306270248,0.6105667302090909,7.623665826418182
10.21055171,1.492534271254545,-2.1105602292618184,0.6929146416745453,7.758363099309091
10.22054371,1.3684859951818178,-2.0105774449709095,0.7531114504018183,7.880514188181818
10.23053471,1.2255526052545453,-1.8887932107890908,0.7764126366745454,7.976993279436364
10.24052671,1.060159267963636,-1.746511030589091,0.7715606649654546,8.050910184836363
10.25051871,0.9067715720545452,-1.572834043878182,0.758962663438182,8.140846763472727
10.26051071,0.7621465879454542,-1.3977547353945456,0.7646385237836363,8.240819485727272
10.27050171,0.6089114831090906,-1.2525902180709094,0.8086588296745455,8.338600781345454
10.28049371,0.46622356990909064,-1.1256293163072728,0.8938151056563637,8.445747567909091
10.29048571,0.3438724534909088,-1.023449796870909,1.00923193462,8.541717581836364
10.30047671,0.25930555558363605,-0.944941943289091,1.1385520497109092,8.606843289636364
10.31046871,0.21891290747454517,-0.9040429874345456,1.2530196044745452,8.620485422545455
10.32046071,0.24579231596545426,-0.8931423847436365,1.3132559031654545,8.590024378945454
10.33045171,0.3138854545436361,-0.9027770014345456,1.2975018988745453,8.581822142290909
10.34044371,0.3910446744163633,-0.9384948564581819,1.2075520196745455,8.6741403948
10.35043571,0.46890046245272693,-1.0251932877345455,1.0779943481763636,8.844880184218182
10.36042671,0.5936276427618178,-1.2512635380254546,0.8710662554036364,9.14736287769091
10.37041871,0.7353823934890905,-1.7049246334981818,0.5257999719490909,9.685328145054545
10.38041071,0.7122737188163633,-2.160978388407273,0.31138574748363634,10.121289596436363
10.39040271,0.5772623187163632,-2.3296195828072728,0.2223185772472727,10.242256743727273
10.40039371,0.33829807553454516,-2.262824456996364,0.21337594131999998,10.196385024254546
10.41038571,-0.005430188229091277,-2.0646222916872725,0.23676317733818178,10.247856753090911
10.42037771,-0.37746336661090946,-1.8171828921600002,0.3444447911563636,10.346922059436363
10.43036871,-0.7856198777563639,-1.615330023069091,0.5008162680472726,10.462842430163636
10.44036071,-1.2074859939927276,-1.510338535107273,0.6450741480109091,10.586970800236363
10.45035271,-1.5427393247200003,-1.5479962517618182,0.7300359137163637,10.690905459909091
10.46034371,-1.745175139956364,-1.7147480406890911,0.6993154612981818,10.847598235836363
10.47033571,-1.8188094429563637,-1.8408418109436364,0.6891611546981817,10.943034589654545
10.48032771,-1.8845233016654548,-1.768291621689091,0.9510466187163636,10.974673912563635
10.49031871,-1.994798135685455,-1.5458835038527274,1.209638295770909,11.003285746745455
10.50031071,-2.0819325725600004,-1.3043831212527273,1.3604075074981818,10.981741243672728
10.51030271,-2.136316765196364,-1.0725594553072728,1.5829977607890908,11.033957103581818
10.52029371,-2.168212072087273,-0.8516740268345455,1.9585585430436363,11.232239427363636
10.53028571,-2.2410956922509095,-0.6516866746890909,2.34532419588,11.440685651563637
10.54027771,-2.388866611269091,-0.47032019541636366,2.5624749439163637,11.5380211688
10.55026971,-2.548125863196364,-0.3174932847072727,2.5389863065454548,11.569181906127271
10.56026071,-2.62119272314,-0.23867384894363639,2.4162596500454545,11.489787133909092
10.57025271,-2.6157166887400005,-0.21152523730727274,2.3606123153,11.43058158430909
10.58024471,-2.53310092962,-0.21873702292545458,2.329716882281818,11.408529678854546
10.59023571,-2.397127687783637,-0.24718838350727274,2.3241356830454545,11.433580106672729
10.60022771,-2.2869714073800007,-0.26204388338,2.3696424720927274,11.47666236558182
10.61021971,-2.218104190465455,-0.20349728647090912,2.4291211576745453,11.453445378618182
10.62021071,-2.179150558056364,-0.05113208253636367,2.4766809214018184,11.365581666654546
10.63020271,-2.169760345003637,0.14591460919090907,2.496930108270909,11.306402163690908
10.64019471,-2.1785612949309097,0.34895994880909087,2.4715725426345454,11.290426381909091
10.65018571,-2.182176654949091,0.5288880236818182,2.3997039246709093,11.29845063121818
10.66017771,-2.170539531676364,0.6811178805181819,2.31301708018,11.310830877454547
10.67016971,-2.1354195066218185,0.79002654582,2.2275306969618183,11.308877407054545
10.68016071,-2.0794093149309094,0.8684341781199999,2.1435380859890913,11.291092856672726
10.69015271,-2.015126636685455,0.9132869999381817,2.055560315989273,11.238544442618183
10.70014471,-1.9517265610909096,0.9117958642654546,1.9807864624256364,11.163182264381819
10.71013671,-1.890407395267273,0.8488728284472726,1.928412313952909,11.07476049869091
10.72012771,-1.8302735371272731,0.7273840700163637,1.890730070880182,10.979552156599999
10.73011971,-1.7465226447272733,0.5911025044958181,1.863215901952909,10.881660428218183
10.74011171,-1.6460427274909095,0.4526806985830909,1.820379104389273,10.76050095310909
10.75010271,-1.5369091835818185,0.3315927827285455,1.739763987382,10.6161182184
10.76009471,-1.4432964410618185,0.20231870118309092,1.6057812387456365,10.459478634781819
10.77008671,-1.373694736796364,0.06780700280127273,1.437419349800182,10.336418746527274
10.78007771,-1.319581799147273,-0.07602833610781819,1.2723209939092728,10.218464722090909
10.79006971,-1.2518203890490913,-0.2234593617987273,1.135216028800182,10.073778514909092
10.80006171,-1.160269736227273,-0.38207261333872733,1.0348583263456366,9.894223490090909
10.81005271,-1.0361582039000004,-0.558230042075091,0.959968006882,9.74011173169091
10.82004471,-0.8665232060090913,-0.7513151707660001,0.8867287922783637,9.653507565909091
10.83003671,-0.6478598577000003,-0.9558413230569093,0.8015532789565455,9.6278592872
10.84002771,-0.40445672733636395,-1.1728649632569093,0.6961477762292728,9.642011046945454
10.85001971,-0.16910795050000035,-1.4012169140023636,0.5784920005565456,9.680064499799999
10.86001171,0.03187814859090877,-1.6230287646750907,0.4827866299201819,9.737831431800002
10.87000371,0.16793761293636328,-1.8167586180023638,0.4391628237201819,9.819505308018181
10.87999471,0.25196436101272696,-1.9604242388023638,0.44611120828381823,9.895039105799999
10.88998671,0.3061595663399997,-2.0408114087605456,0.4920551311929092,9.925248286181818
10.89997871,0.33059072172181786,-2.0376130349605455,0.5397128092110909,9.909179777272726
10.90996971,0.26592895788545423,-1.879791507033273,0.647371148411091,9.715655785454546
10.91996171,0.15327084526727242,-1.5178912345787274,0.919263699411091,9.266151770363637
10.92995371,0.17910055895818153,-1.1837967794696365,1.1247885560656365,8.913704038181818
10.93994471,0.28313532416727244,-1.1087875064514545,1.2549274514401818,8.827444994363637
10.94993671,0.46688952460363603,-1.2252756090987273,1.2956750069492728,8.860085980981818
10.95992871,0.7528856182581816,-1.451865708735091,1.2763800458038184,8.784086096800001
10.96991971,1.0638603050036362,-1.7052225223896365,1.1773283508583636,8.640454882509092
10.97991171,1.4098148483490907,-1.8909294004805457,1.0413800660038182,8.462649642727271
10.98990371,1.7687400894399996,-1.980553459533273,0.9325140641129092,8.274883634490909
10.99989471,2.0251144756945454,-1.9395212615696364,0.906373182880182,8.111367668872727
11.00988671,2.113570170694545,-1.7733831644969091,1.0471350657529093,7.911149883836364
11.01987871,2.025779726712727,-1.6351568257514546,1.2446194800256365,7.820078555290909
11.02986971,1.8928681773672726,-1.685123292824182,1.1796184076074545,7.812278701109091
11.03986171,1.801085617332727,-1.9127508692423638,1.0495496256256365,7.810416749654546
11.04985371,1.7157939145163634,-2.182955765042364,0.9433001543947274,7.844161367709091
11.05984571,1.6309426611890907,-2.4444662126241816,0.7242687929583635,7.787995583636364
11.06983671,1.5337176736254543,-2.7015393677332726,0.37007134732200003,7.576927078690909
11.07982871,1.4717446681527269,-2.931474223551455,0.03548018978200003,7.3490415847454535
11.08982071,1.490125045043636,-3.1098407728969093,-0.12825710971799997,7.240391181800001
11.09981171,1.5551751490799999,-3.2178115554423634,-0.0798919770743636,7.200080952945455
11.10980371,1.5751050700072726,-3.209223909296909,-0.008460758756181781,7.205622027472727
11.11979571,1.5461632688254543,-3.0860865230987273,-0.049276407737999975,7.129294758963637
11.12978671,1.474561128432727,-2.859175251935091,-0.09555560999254542,7.010469181709091
11.13977871,1.3546103206145452,-2.5821639101532727,-0.08774316111981817,6.894748999690909
11.14977071,1.2227452633963636,-2.330890937826,-0.05354931908345455,6.8130872867272725
11.15976171,1.104937290014545,-2.1637783437169094,0.0005615242074545567,6.816803613436363
11.16975371,1.0435293156145453,-2.0920473599241816,0.06351320075290909,6.889421513054545
11.17974571,1.027818804630909,-2.052770092124182,0.12981218500745453,6.959944946654545
11.18973671,1.0423011644309088,-2.0234181326878184,0.21739922162563638,7.014107747090909
11.19972871,1.0706639769945452,-1.989742954615091,0.32735919637109095,7.061514158654545
11.20972071,1.0896147311581814,-1.9520532377423636,0.4462428514438182,7.1162506173999995
11.21971171,1.088949551921818,-1.8963693738332728,0.5670935298074545,7.197280513509091
11.22970371,1.062949152703636,-1.822425771724182,0.6864059014165454,7.304253649545455
11.23969571,1.0207011750763633,-1.7244059402332728,0.7865135289254547,7.437426364818181
11.24968671,0.9605859270272724,-1.6058182406332728,0.8515091794345455,7.582694439745454
11.25967871,0.8900220527854543,-1.4532118656332726,0.8843056910890909,7.728517327327273
11.26967071,0.8128587637909088,-1.2706272731296364,0.9025542345254546,7.865843098090909
11.27966271,0.7143714474090905,-1.1008357824818185,0.9170573599072728,7.988750488145454
11.28965371,0.612968648172727,-0.9572952920963637,0.9459998707436365,8.107717586527274
11.29964571,0.5196680300272725,-0.8486281380418182,0.9995163379145454,8.223775491254544
11.30963771,0.4598329194345452,-0.7610783415327274,1.0818676886236365,8.311831167745455
11.31962871,0.4483869256963634,-0.6960030732054545,1.1644136399745455,8.327233328927273
11.32962071,0.4819169732181815,-0.6597668359327272,1.1827456231745455,8.329848309618182
11.33961271,0.5295543853199998,-0.6810359446545455,1.0848836239927273,8.427699624254545
11.34960371,0.5769630623163634,-0.7718379625145456,0.9019895436290909,8.6230877858
11.35959571,0.6408627000799997,-0.9630821325418182,0.7174236805654546,8.860711867472727
11.36958771,0.7295793774799997,-1.3330866777781818,0.4624767749872727,9.259803605254545
11.37957871,0.7052915745709087,-1.8227461884509089,0.18542981294545452,9.724868156509089
11.38957071,0.5648060470436361,-2.139544133050909,0.03079682483636361,9.97243782741818
11.39956271,0.36506100884363607,-2.1637607913054544,-0.010845168618181847,9.9415481982
11.40955371,0.114091485752727,-1.9847149018145454,0.038964359181818155,9.8889484496
11.41954571,-0.1740014673200003,-1.6766473817418182,0.11558117007090907,9.984487423036365
11.42953771,-0.4555529914109093,-1.3488927755054543,0.24172667230727268,10.123967595981817
11.43952871,-0.7163364387381821,-1.1161353092145454,0.4407776088163636,10.195477559309092
11.44952071,-0.9683803717563639,-0.9717366920872726,0.6709982021072727,10.207843982218181
11.45951271,-1.196376960647273,-0.9039627955236363,0.9249886838527271,10.22213550730909
11.46950371,-1.439918925174546,-0.9645290632509089,1.017627556652727,10.259442614218182
11.47949571,-1.636173824156364,-1.1916795599963637,0.847421902361818,10.498888754763636
11.48948771,-1.6793801763563638,-1.4533991041054546,0.8236551660963637,10.738221539127272
11.49947971,-1.7930236165745457,-1.4614233231963636,1.0688114086963636,10.839648294418183
11.50947071,-1.9608335177381822,-1.2654325323054547,1.2605169559509088,10.874542089872726
11.51946271,-2.109641174665455,-1.0249214348145455,1.412608361350909,10.93398169361818
11.52945471,-2.2107489473200004,-0.7753729764872728,1.6539098216600001,11.07625553521818
11.53944571,-2.2557971139927275,-0.5074079895236363,2.0018200459327273,11.313133098181819
11.54943771,-2.3031894878836368,-0.24934579383272726,2.319759250150909,11.524866325254544
11.55942971,-2.3747884575018183,-0.027633228869090892,2.458531729532727,11.618562013927274
11.56942071,-2.4274272562836368,0.15850672589454545,2.3784946164236365,11.554090317781817
11.57941271,-2.4128630168472727,0.2683308844581818,2.2554389264781816,11.40974854221818
11.58940471,-2.339863104865455,0.2994757171672727,2.2465160753872726,11.354757598090908
11.59939571,-2.2552882856400003,0.23387423123999995,2.309906651909091,11.40840070487273
11.60938771,-2.1465122192400004,0.15714577038545452,2.3918550975636363,11.482750826036366
11.61937971,-2.0235673712218185,0.15046092514909087,2.455523451381818,11.51201161950909
11.62937071,-1.911967514276364,0.22648700778545452,2.49161029494,11.476170579872727
11.63936271,-1.826108692676364,0.3480832486763636,2.4991460987672722,11.416541892690908
11.64935471,-1.7780298490218183,0.47049491036727265,2.456415227511091,11.3810541248
11.65934571,-1.7572713032218183,0.5768412300945454,2.3732081873110915,11.377829998872727
11.66933771,-1.741320449767273,0.65685377426,2.2771159170383637,11.384401141072729
11.67932971,-1.7144104736400003,0.69780806606,2.187688473280182,11.371514436472728
11.68932071,-1.6770204757381821,0.7058272352781818,2.1102214616310913,11.336851988945455
11.69931271,-1.6337253721018186,0.6989149333327273,2.046469588320182,11.295551966818183
11.70930471,-1.5859259496036366,0.681111554369091,1.9871414738474547,11.242704597109093
11.71929571,-1.5529587391218185,0.6391867842600001,1.927672005592909,11.171276919327273
11.72928771,-1.5102086451400003,0.5519686949872726,1.8695618448656364,11.075479994745455
11.73927971,-1.4548199513400004,0.43676817048545447,1.8084641609383636,10.9646929776
11.74927171,-1.3895781915218186,0.3127021720218181,1.744873234902,10.846441592309093
11.75926271,-1.3115572701218183,0.19874980480363638,1.661970325663818,10.719993031345455
11.76925471,-1.2379795416127275,0.08653266793090907,1.5434433520674546,10.581612831509092
11.77924671,-1.1637034243218185,-0.03355813817818185,1.389315382703818,10.451287994345455
11.78923771,-1.0946410087418184,-0.1689947810327273,1.2225772123947272,10.319852424963639
11.79922971,-1.0289211858854548,-0.3201553203418182,1.0657070264856365,10.177009214709091
11.80922171,-0.9486364059890912,-0.4857798831145455,0.9266824364310909,10.01460715878182
11.81921271,-0.8450294004800003,-0.6607812641636365,0.8148767415583635,9.8419377464
11.82920471,-0.7122476486800003,-0.8381998416454547,0.732647584392909,9.704183337927272
11.83919671,-0.5391292996436367,-1.007903794149091,0.6592517972965455,9.62952695289091
11.84918771,-0.3337833198800003,-1.1761498976036364,0.583157690282,9.614870429327272
11.85917971,-0.13306501262545486,-1.357281116821818,0.5101441170638182,9.6396368412
11.86917171,0.020320445374545137,-1.5414609467127274,0.46639502629472723,9.70401817981818
11.87916271,0.11615676174909059,-1.7092963523490912,0.4942950848947273,9.775458170618183
11.88915471,0.1719343325854542,-1.8338748539363636,0.6069199241856363,9.777492188436364
11.89914671,0.2112981232399997,-1.8822413207909092,0.748314837312909,9.722261101872729
11.90913771,0.2137767685854542,-1.7973031672272728,0.8430308537492727,9.615086328654547
11.91912971,0.15690944958545422,-1.494195074718182,1.001434668731091,9.294484162472727
11.92912171,0.17757722002181786,-1.0555127701727272,1.2160377636401818,8.861746358290908
11.93911271,0.305179003203636,-0.8056625318090909,1.374859003349273,8.6388669752
11.94910471,0.49569739025818144,-0.845433166409091,1.4763937343638183,8.691798611145455
11.95909671,0.7353929925309087,-1.0525516977181817,1.483768168320182,8.742046875018183
11.96908771,1.0212091142399997,-1.375015349772727,1.4225044234674546,8.6501900704
11.97907971,1.3084632151309088,-1.7207120415545456,1.2969052531583638,8.526349908709092
11.98907171,1.5573162800399998,-1.956498248609091,1.1182069115401818,8.440430889218183
11.99906271,1.76359789404,-2.087939722881818,0.9134645185765455,8.378861149563637
12.00905471,1.901790287112727,-2.1450592802272728,0.676052764322,8.303134599727272
12.01904671,2.0121120649818183,-2.0573173548272727,0.6236443299038182,8.183090986927272
12.02903771,2.0582466868545453,-1.775787508009091,0.917781879431091,7.891760988163637
12.03902971,1.9460537096181816,-1.493364886918182,1.1203835482674545,7.693842114527273
12.04902171,1.8759254609090905,-1.5287571689727273,1.0495077037583638,7.6839606818
12.05901371,1.8465637578909089,-1.7949376919909092,0.9512264060492727,7.719102613254545
12.06900471,1.8460736230181816,-2.0952179860272726,0.7916590377583635,7.6971674442545455
12.07899671,1.8451125693272723,-2.3895929218272727,0.5242974622129091,7.576192685072727
12.08898871,1.8141913580654543,-2.6837574641727273,0.1926318050129091,7.342437563345453
12.09897971,1.8107157837018182,-2.9377003389545457,-0.09109414971981818,7.124887324218182
12.10897171,1.8665577244290907,-3.126974007972727,-0.23692375061072726,7.003929358781819
12.11896371,1.9323438015563632,-3.2438614860818182,-0.23184560859254547,6.969942202927272
12.12895471,1.964897438483636,-3.2306878899545453,-0.19003119139254548,6.965948698654546
12.13894671,1.9612762312654544,-3.095756999367273,-0.1909358035016364,6.885597185309091
12.14893871,1.909392030621818,-2.8520226401036366,-0.168351103138,6.745780132872727
12.15892971,1.7904976605309089,-2.5968402831400006,-0.11743233195618184,6.618755469727273
12.16892171,1.6506067842036363,-2.399590448521818,-0.05832932199254549,6.56749515
12.17891371,1.5465508746581818,-2.293829084249091,0.00978978355290906,6.607279902727273
12.18890471,1.499071619112727,-2.28058335474,0.09337713197109089,6.678232450109091
12.19889671,1.4962014189672725,-2.274688489612727,0.2045467122454545,6.74671388449091
12.20888871,1.4999054440399997,-2.26162700054,0.3371809414454545,6.808809870727273
12.21887971,1.4955648166581816,-2.239329717412727,0.48089349944545445,6.878425662690909
12.22887171,1.4761164724218176,-2.203718281721818,0.6178095941672727,6.96552452369091
12.23886371,1.428801554192727,-2.1446350592672725,0.7482961646527272,7.082983791236364
12.24885471,1.3539002193745453,-2.06185911034,0.8651072994,7.221661626690908
12.25884671,1.2676587187672725,-1.9521815255400001,0.9619914421272727,7.376368312909091
12.26883871,1.1805231416854542,-1.797877108449091,1.0431536977272726,7.558991864236364
12.27882971,1.0868492027399996,-1.6045765363581819,1.1164550416545453,7.760444134218182
12.28882171,0.9884299080854543,-1.384720760129091,1.182432142,7.972081759254545
12.29881371,0.8846333730490905,-1.1623147791563637,1.245283299581818,8.184063748236365
12.30880471,0.7803164198672724,-0.961325331192727,1.3145660236199999,8.38639904069091
12.31879671,0.6955216161036362,-0.7813633637563636,1.3979901417072729,8.572151963981819
12.32878871,0.6418488621581815,-0.6285148821381817,1.482740185052727,8.702640988236363
12.33877971,0.6482446688999997,-0.5116663783745454,1.5175523541981817,8.781844486763637
12.34877171,0.7017387611709088,-0.45019827864727274,1.4678575700345455,8.865843898018182
12.35876371,0.7267299894381815,-0.46742325103636356,1.3335275605799999,9.000652597945454
12.36875571,0.7529530559472724,-0.6345513243145454,1.1579252771254545,9.222180220327273
12.37874671,0.8615757977290907,-1.1246172483054544,0.7787749715090908,9.800200771890909
12.38873871,0.9310309282563632,-1.8646372678381815,0.3958880107145454,10.548524264927272
12.39873071,0.8853500556381815,-2.379960335492727,0.20323371543818172,10.986546895018183
12.40872171,0.7402244099981816,-2.4783298198381813,0.11224560994727266,11.02103347409091
12.41871371,0.4993799149072724,-2.3236214664745454,0.1263295378199999,10.989860020800002
12.42870571,0.21182687247090884,-2.0218011647290908,0.20049049154727264,11.09711871901818
12.43869671,-0.055757705256363914,-1.702440034510909,0.39523137894727267,11.24055300829091
12.44868871,-0.3138298305654548,-1.4923231573472724,0.6408317547290909,11.32997442249091
12.45868071,-0.5573970337836366,-1.4027288234199997,0.880417620710909,11.354351531527273
12.46867171,-0.7556318052927274,-1.429596141474545,1.0782826568381818,11.350976239163638
12.47866371,-0.9357067648745457,-1.595475430201818,1.0481491479290908,11.44855083261818
12.48865571,-1.058233353565455,-1.8020666489290906,1.0602615408563636,11.585147104618184
12.49864671,-1.3015524753836367,-1.8150593747290906,1.1576032654236363,11.581804221345454
12.50863871,-1.643441322129091,-1.6449026032018181,1.155104537549091,11.616274498981817
12.51863071,-1.8912883788927275,-1.414042898601818,1.3315880176581818,11.66054581269091
12.52862171,-2.027469930438182,-1.1307471288381816,1.6077356832036362,11.760068876200002
12.53861371,-2.0948198560018185,-0.8455316544018181,1.9977388435490908,11.99190485241818
12.54860571,-2.177620682154546,-0.6114803906563635,2.427197622512727,12.25118131970909
12.55859671,-2.3101197795545456,-0.4250224324018181,2.7271050343672725,12.390750935181817
12.56858871,-2.4290990831145463,-0.2862453709290908,2.8225940154945457,12.425025945363636
12.57858071,-2.45828274375091,-0.23019656634727256,2.752759863130909,12.358178612527274
12.58857171,-2.3918186368018186,-0.2528364644199999,2.6524113408036363,12.306473022290907
12.59856371,-2.237376937747273,-0.30277534332909073,2.5646201659127272,12.295205607927272
12.60855571,-2.04261747482,-0.343782015510909,2.5416191650581816,12.317819003018183
12.61854671,-1.887161485856364,-0.3295528906381817,2.612612203658182,12.318329614327274
12.62853871,-1.796670497347273,-0.24286809931090897,2.710184388258182,12.263170683927274
12.63853071,-1.755340311976364,-0.09561058709272716,2.7623886937309092,12.191499320363636
12.64852271,-1.7482029560309094,0.06591086750727285,2.7621045854963633,12.14329173530909
12.65851371,-1.7564866213945456,0.21980651103454557,2.7290871474218177,12.127005848381817
12.66850571,-1.7612476848490912,0.35747969261636375,2.6635775851236367,12.118063270563637
12.67849771,-1.7584045533218184,0.4716458340345456,2.579073192621818,12.106808677690909
12.68848871,-1.7418865704490911,0.5596725188109092,2.492241119254545,12.095014149581818
12.69848071,-1.6925162323327276,0.6147190999836365,2.409894713440909,12.070623094454545
12.70847271,-1.6245540899909094,0.6409029848381819,2.333760542362727,12.036050170290908
12.71846371,-1.554767674827273,0.6312221326018183,2.2709225197445453,11.984803862018182
12.72845571,-1.5029456842309092,0.5894081619109093,2.211507866471818,11.911003185327273
12.73844771,-1.4619130769636366,0.5591347238000001,2.146270864162727,11.840289005181818
12.74843871,-1.42143063954,0.5053235955054547,2.073707343180909,11.752940747818181
12.75843071,-1.365173897358182,0.4425512052327274,1.9887768335081817,11.651073176363637
12.76842271,-1.302961856376364,0.38301035841454556,1.878423641479091,11.53851957030909
12.77841371,-1.2430468223181823,0.3210258007054546,1.7393526550972729,11.421778136218183
12.78840571,-1.1835446176215456,0.22942520203272737,1.5694189495336364,11.28774923069091
12.79839771,-1.121001507305182,0.09459143899636373,1.3814924152245454,11.137104131272727
12.80838871,-1.0508001816997274,-0.07653069720181807,1.1929263337336362,10.974593202527275
12.81838071,-0.9660127427688183,-0.26826424733999993,1.0204720848790907,10.792759315836365
12.82837271,-0.8601413020051821,-0.47506782643090906,0.8763532942427271,10.595368220345454
12.83836371,-0.7153112985688185,-0.7039533408483636,0.7601593357699999,10.419042499636364
12.84835571,-0.5209415578597276,-0.9542976158847273,0.661748336191818,10.28878906661818
12.85834771,-0.2921290750779093,-1.2303210653392729,0.5758200656136363,10.208080111800001
12.86833871,-0.059852398768818434,-1.5278137046119997,0.502016637220909,10.167605913618182
12.87833033,0.14020708941299975,-1.8195180150119998,0.45809000637545444,10.1665016278
12.88832233,0.2771454567093634,-2.073829094266545,0.4682810919754544,10.200669084836363
12.89831433,0.358856457545727,-2.261882566302909,0.5275723796299999,10.233362949981819
12.90830533,0.4485385794548179,-2.356651154522909,0.6348579110299999,10.227391975709093
12.91829733,0.530042583545727,-2.2888666691956363,0.7628499426845452,10.150285799345456
12.92828933,0.5223771070729998,-1.9098817680683637,1.0947627591754545,9.713710802072729
12.93828033,0.5089313071093634,-1.2925423077229092,1.4513096400445453,9.069652456618183
12.94827233,0.5492763084002725,-0.8785904935592728,1.6367956210263637,8.674664130072728
12.95826433,0.6492769071129998,-0.8540178355592727,1.73221447279,8.647986749927274
12.96825533,0.832098056694818,-1.074590831341091,1.7200802936627273,8.692058917963637
12.97824733,1.0609893280402725,-1.432521269650182,1.6295392902081816,8.605239028963636
12.98823933,1.2750392072584542,-1.770239775941091,1.4022682451172725,8.463952359909092
12.99823033,1.4679842419675453,-1.9585873310320001,1.1198359815172727,8.350381708290909
13.00822233,1.605637457956636,-2.0171346933774545,0.8628717653718181,8.274028262
13.01821433,1.6591201959948179,-1.9726671817956365,0.7144797657354545,8.180671584254545
13.02820533,1.664232350194818,-1.7936325721410908,0.9029615835354544,8.024773693927273
13.03819733,1.5740458607584542,-1.5630067349410912,1.0913362484445455,7.88691328010909
13.04818933,1.577973350467545,-1.5332967770683634,1.1419978750263635,7.890534731927272
13.05818033,1.6866711971039088,-1.7152871967956362,1.2170014072172726,7.864465337927273
13.06817233,1.7293465795948177,-1.9563476667774544,1.0554244359627272,7.8174922881818185
13.07816433,1.6917071328311815,-2.232530862159273,0.7642509996354545,7.698616188436365
13.08815533,1.6133362263402724,-2.5195546677774545,0.3636767750536363,7.446969433072727
13.09814733,1.573438297856636,-2.7681306278320004,-0.028649069546363645,7.1690983041818175
13.10813933,1.6267678707475453,-2.9524674713956363,-0.2501422337645455,7.010231779145455
13.11813033,1.7094251583839086,-3.0612662834683637,-0.2891984183463636,6.961905049818182
13.12812233,1.7261507041293633,-3.0647823737047273,-0.26635176272818184,6.965616675345454
13.13811433,1.6848727211075452,-2.9413579742683633,-0.2734029572918182,6.870905387945455
13.14810533,1.5961421617984541,-2.7108747346047273,-0.27126597005545455,6.702937115254547
13.15809733,1.4721423059984544,-2.4512324512229093,-0.23954553211000001,6.53604693050909
13.16808933,1.344571600762091,-2.259613878641091,-0.20836796030999996,6.446812192945454
13.17808133,1.2444006477439087,-2.1555152073501818,-0.17719504501909092,6.454389676963636
13.18807233,1.1948041552711814,-2.111820612622909,-0.12035603178272727,6.5197303023454545
13.19806433,1.202706470547545,-2.097888664513818,-0.024881453397272713,6.582822998418181
13.20805633,1.2412025636311816,-2.088597151786545,0.09633612976818183,6.636134316581818
13.21804733,1.2798269911493634,-2.0655007988047274,0.23238744255727276,6.7005563998
13.22803933,1.3050062937893634,-2.021595204641091,0.3661093748045454,6.786528379581817
13.23803133,1.3052461372802724,-1.9552743411683637,0.4887364279718182,6.8937517208
13.24802233,1.2726805587457268,-1.8611663394774547,0.5999550291854545,7.023327641454545
13.25801433,1.2116910881675451,-1.7473279929683636,0.7001356088454546,7.167147963672726
13.26800633,1.133618993003909,-1.616049198932,0.7803021580454546,7.321930386963636
13.27799733,1.0525961748984543,-1.4584475050774544,0.8396636654454545,7.491117363963636
13.28798933,0.9651053130129997,-1.2882285936210909,0.8863379746818181,7.661443186309091
13.29798133,0.8750417373711815,-1.1086139294356363,0.9237250928090909,7.836047409309091
13.30797233,0.7800165946075452,-0.9402508284901817,0.9646223901909091,8.008644596909091
13.31796433,0.690217002134818,-0.800434249072,1.0265226828745455,8.167513130545455
13.32795633,0.6067235015129998,-0.6882191215083635,1.1195286664745456,8.306289584581819
13.33794733,0.5285677167618179,-0.5832519685810909,1.2279044271836363,8.425798769018181
13.34793933,0.48069504193636337,-0.48070535030836353,1.3315945854018183,8.505230904781818
13.35793133,0.46509727656727246,-0.40629284403745447,1.3954312114616365,8.521730655436365
13.36792233,0.46231527501454517,-0.3966621290247272,1.3670420173343638,8.550197018999999
13.37791433,0.46418401325090886,-0.48073249200654544,1.240711509188909,8.683206175581818
13.38790633,0.46195983341454516,-0.7053334219527272,1.0813246949525455,8.9008632012
13.39789733,0.5117589319054543,-1.1516793636436364,0.7486710256398181,9.37477552730909
13.40788933,0.5240289418509089,-1.7086639065527272,0.3676044653089091,9.943108547036365
13.41788133,0.38887037928727247,-2.005323859825454,0.14212147741072728,10.196315504854546
13.42787333,0.15872343965090882,-1.978748020170909,0.026475721983454534,10.1578957618
13.43786433,-0.1367310090945457,-1.7789826283345456,0.017571268347090895,10.145321901163637
13.44785633,-0.46570581222181845,-1.4770961041163637,0.06317587199981815,10.238914451200001
13.45784833,-0.7729725083490911,-1.1693731231890907,0.2521309102725454,10.358585801472728
13.46783933,-1.0811086322945458,-0.9458625819527272,0.5343093409816363,10.47452586838182
13.47783133,-1.4166071633309094,-0.7915717729709091,0.7724971377634546,10.529541852381817
13.48782333,-1.7256266208218185,-0.7108440398981818,0.8918251798943637,10.497078063836364
13.49781433,-1.9629529738400004,-0.8007300647890908,0.741621170658,10.59384918801818
13.50780633,-1.9851644730036366,-1.0691125110254545,0.6016792906579999,10.8643028358
13.51779833,-2.0094369243127272,-1.2489793069890909,0.8662300034216365,11.098680202236363
13.52778933,-2.134170690749091,-1.2111418788254547,0.9938634519307272,11.084834522836365
13.53778133,-2.158144689549091,-1.0778672492745454,1.2119285769125454,11.069727885836363
13.54777333,-2.1265167758218184,-0.8951089094199999,1.5836054259670909,11.21730840981818
13.55776433,-2.110537752065455,-0.6786532039654545,1.9526014435670906,11.39202204829091
13.56775633,-2.1654823471763636,-0.4726870100381818,2.167698755767091,11.531950174036364
13.57774833,-2.2755167981763638,-0.29157779761999997,2.1674918600034543,11.587954084363636
13.58773933,-2.3421545328854547,-0.10757396892909087,2.073686669676182,11.533717767745454
13.59773133,-2.336652850467273,0.06446227843454551,2.0212349073852725,11.438262673909092
13.60772333,-2.2917618782127276,0.1846034450163637,2.0212536556943634,11.335025808145453
