Time (s),Linear Acceleration x (m/s^2),Linear Acceleration y (m/s^2),Linear Acceleration z (m/s^2),Absolute acceleration (m/s^2)
0.01808316668,0.6004249393017256,0.0798016985782353,9.83237699627451,9.886335301058823
0.0280381667,0.6004249393017256,0.0798016985782353,9.83237699627451,9.886335301058823
0.03799416672,0.6004249393017256,0.0798016985782353,9.83237699627451,9.886335301058823
0.04795016674,0.6004249393017256,0.0798016985782353,9.83237699627451,9.886335301058823
0.05790616665,0.6004249393017256,0.0798016985782353,9.83237699627451,9.886335301058823
0.06786116667,0.6004249393017256,0.0798016985782353,9.83237699627451,9.886335301058823
0.07781716669,0.6004249393017256,0.0798016985782353,9.83237699627451,9.886335301058823
0.08777316671,0.6004249393017256,0.0798016985782353,9.83237699627451,9.886335301058823
0.09772916674,0.6004249393017256,0.0798016985782353,9.83237699627451,9.886335301058823
0.1076841668,0.6004249393017256,0.0798016985782353,9.83237699627451,9.886335301058823
0.1176401667,0.6004249393017256,0.0798016985782353,9.83237699627451,9.886335301058823
0.1275961667,0.6004249393017256,0.0798016985782353,9.83237699627451,9.886335301058823
0.1375521667,0.6004249393017256,0.0798016985782353,9.83237699627451,9.886335301058823
0.1475071667,0.6004249393017256,0.0798016985782353,9.83237699627451,9.886335301058823
0.1574631667,0.6004249393017256,0.0798016985782353,9.83237699627451,9.886335301058823
0.1674191667,0.6004249393017256,0.0798016985782353,9.83237699627451,9.886335301058823
0.1773751667,0.6004249393017256,0.0798016985782353,9.83237699627451,9.886335301058823
0.1873301667,0.6004249393017256,0.0798016985782353,9.83237699627451,9.886335301058823
0.1972861667,0.6004249393017256,0.0798016985782353,9.83237699627451,9.886335301058823
0.2072421667,0.6004249393017256,0.0798016985782353,9.83237699627451,9.886335301058823
0.2171981668,0.6004249393017256,0.0798016985782353,9.83237699627451,9.886335301058823
0.2271531667,0.6004249393017256,0.0798016985782353,9.83237699627451,9.886335301058823
0.2371091667,0.6004249393017256,0.0798016985782353,9.83237699627451,9.886335301058823
0.2470649583,0.6004249393017256,0.0798016985782353,9.83237699627451,9.886335301058823
0.2570209584,0.6004249393017256,0.0798016985782353,9.83237699627451,9.886335301058823
0.2669769584,0.6004249393017256,0.0798016985782353,9.83237699627451,9.886335301058823
0.2769319584,0.6004249393017256,0.0798016985782353,9.83237699627451,9.886335301058823
0.2868879584,0.6004249393017256,0.0798016985782353,9.83237699627451,9.886335301058823
0.2968439583,0.6004249393017256,0.0798016985782353,9.83237699627451,9.886335301058823
0.3067999583,0.6004249393017256,0.0798016985782353,9.83237699627451,9.886335301058823
0.3167549584,0.6004249393017256,0.0798016985782353,9.83237699627451,9.886335301058823
0.3267109584,0.6004249393017256,0.0798016985782353,9.83237699627451,9.886335301058823
0.3366669584,0.6004249393017256,0.0798016985782353,9.83237699627451,9.886335301058823
0.3466229584,0.6004249393017256,0.0798016985782353,9.83237699627451,9.886335301058823
0.3565779583,0.6004249393017256,0.0798016985782353,9.83237699627451,9.886335301058823
0.3665339584,0.6004249393017256,0.0798016985782353,9.83237699627451,9.886335301058823
0.3764899584,0.6004249393017256,0.0798016985782353,9.83237699627451,9.886335301058823
0.3864459584,0.6004249393017256,0.0798016985782353,9.83237699627451,9.886335301058823
0.3964009584,0.6004249393017256,0.0798016985782353,9.83237699627451,9.886335301058823
0.4063569583,0.6004249393017256,0.0798016985782353,9.83237699627451,9.886335301058823
0.4163129583,0.6004249393017256,0.0798016985782353,9.83237699627451,9.886335301058823
0.4262689584,0.6004249393017256,0.0798016985782353,9.83237699627451,9.886335301058823
0.4362239584,0.6004249393017256,0.0798016985782353,9.83237699627451,9.886335301058823
0.4461799584,0.6004249393017256,0.0798016985782353,9.83237699627451,9.886335301058823
0.4561359583,0.6004249393017256,0.0798016985782353,9.83237699627451,9.886335301058823
0.4660919583,0.6004249393017256,0.0798016985782353,9.83237699627451,9.886335301058823
0.4760469584,0.6004249393017256,0.0798016985782353,9.83237699627451,9.886335301058823
0.4860029584,0.6004249393017256,0.0798016985782353,9.83237699627451,9.886335301058823
0.4959589584,0.6004249393017256,0.0798016985782353,9.83237699627451,9.886335301058823
0.5059149584,0.6004249393017256,0.0798016985782353,9.83237699627451,9.886335301058823
0.5158699583,0.6004249393017256,0.0798016985782353,9.83237699627451,9.886335301058823
0.5258259583,0.5516909879546666,0.060436087221372545,9.846638515764706,9.894808775862746
0.5357819584,0.5058246028919215,0.04217406329588236,9.856746907019607,9.900088376392157
0.5457379584,0.46279936844486275,0.02446089801352941,9.865346670764707,9.90484459817647
0.5556929584,0.4236454952311373,0.0069355773998039175,9.874231136588236,9.910829353431373
0.5656489583,0.3904116641723137,-0.012024993888431377,9.883916877352942,9.91846618872549
0.5756049583,0.36305971931152947,-0.0330371811727451,9.894932206156863,9.928032411313726
0.5855609584,0.3409879706899608,-0.0563592708727451,9.899135230627452,9.931259723313726
0.5955159584,0.3187870788585883,-0.08013923195313727,9.888780293254902,9.92020533590196
0.6054719584,0.2980419832115294,-0.10635530358647059,9.865725295215686,9.896837305666667
0.6154279584,0.28133554795270593,-0.13295293470411765,9.837900803588235,9.86909599745098
0.6253839583,0.26613480511937254,-0.15598445218254903,9.811414705254903,9.842879677411766
0.6353389584,0.24931977216054904,-0.17453117818450978,9.787746276941176,9.819362377627451
0.6452949584,0.23057933134290196,-0.19049210491196078,9.769328694058823,9.800708767254902
0.6552509584,0.20826103659388237,-0.2074128004982353,9.757873104392157,9.788537455333334
0.6652069584,0.18186005536643138,-0.22573059081000002,9.75248431045098,9.781997293039217
0.6751619583,0.15243007885662746,-0.24432721305313726,9.751169397764706,9.779449379392156
0.6851179583,0.12307347915858825,-0.26385718849627454,9.752950987039217,9.780124456058823
0.6950739584,0.09422464708407842,-0.2842852962629412,9.758401417509804,9.784382390372548
0.7050299584,0.0659334788625098,-0.3051419246805882,9.767611676450981,9.792192105941176
0.7149859584,0.03790646720956863,-0.32538218777862743,9.779143578098038,9.802154650392156
0.7249409583,0.010305041148784319,-0.34538177489431376,9.79130065027451,9.812775335254901
0.7348969583,-0.01537684720415686,-0.3646387885511765,9.801778860705882,9.822139127098039
0.7448529584,-0.03959119908454902,-0.38371676275705885,9.809515713019609,9.829117171058824
0.7548089584,-0.06216191010807843,-0.403270218782549,9.812750163411765,9.831939628823529
0.7647639584,-0.08168601540611764,-0.42183749029627454,9.812764838784314,9.831798686627451
0.7747199584,-0.0990293614982745,-0.4393363952531373,9.811306107529411,9.830327984725491
0.7846759583,-0.11507834041592156,-0.4560516357335294,9.811232730705882,9.830334389745099
0.7946319584,-0.13175248987278432,-0.47112617043156857,9.813545568196078,9.832637645333334
0.8045869584,-0.15078350291396078,-0.48465392168254906,9.817058850529412,9.836044586215687
0.8145429584,-0.17227410709043137,-0.496294421022549,9.820671925333334,9.839583028705881
0.8244989584,-0.19382047765317648,-0.5064145525717647,9.823483725235294,9.84236750037255
0.8344549583,-0.2122527358100392,-0.5173682448392157,9.826043108843137,9.845102279392158
0.8444099583,-0.2269750617512157,-0.5306993462,9.830072963960783,9.84945282054902
0.8543659584,-0.2380608323021961,-0.5438660834764706,9.832371126058824,9.852154752999999
0.8643219584,-0.2447469284937647,-0.5504523871882353,9.830108184882352,9.850218199470588
0.8742779584,-0.24815161312101958,-0.5509660249568628,9.826486304882353,9.846671696529413
0.8842329584,-0.2508812309698431,-0.5491374745058824,9.823677439980392,9.843809655254901
0.8941889583,-0.25521046357843136,-0.5458179069941177,9.820067300235294,9.840081980568627
0.9041449584,-0.2605933873772549,-0.5412949595705883,9.815667625862744,9.835501293588235
0.9141009584,-0.2658618433317647,-0.5363875175901961,9.810601689843137,9.830235410568628
0.9240559584,-0.27093364939862746,-0.5304938910960785,9.806028846215687,9.825412365784313
0.9340119584,-0.27603480619392157,-0.5239897694274509,9.802556654980393,9.821648084686275
0.9439679583,-0.28055188347196075,-0.5173124784549019,9.802060627647059,9.820844408039216
0.9539239584,-0.28274438297,-0.5108435776607843,9.806794900333333,9.825251653196078
0.9638789584,-0.28490459666411766,-0.5054900045921569,9.81659217380392,9.834796778058823
0.9738349584,-0.2890342443117647,-0.5007205110411764,9.828895999568626,9.846930794333334
0.9837909584,-0.29458446726921567,-0.49615060244901954,9.840982629921568,9.858895863745097
0.9937469583,-0.30010827457019607,-0.4912196798843137,9.851948062509804,9.869744791
1.003701958,-0.30495114494509806,-0.48699023975686273,9.860753281411766,9.87845452217647
1.013657958,-0.30951811846274513,-0.484853506645098,9.867750495294118,9.885452398058824
1.023613958,-0.3122682818215686,-0.48413147869803924,9.873429861431372,9.891149245156862
1.033569958,-0.3132515312607843,-0.482983865172549,9.880024970294116,9.89769962172549
1.043524958,-0.3128699717764706,-0.48011923396862743,9.88878322809804,9.906320380647058
1.053480958,-0.3113026428176471,-0.4752675583745098,9.89946982882353,9.916771875588235
1.063436958,-0.3094447416372549,-0.4694179579745098,9.913308697901961,9.93034245717647
1.073392958,-0.30890175314117646,-0.46408493041568627,9.929240273843137,9.946070449882352
1.083347958,-0.30956214455686276,-0.46051588170392155,9.944702238137255,9.961431445607843
1.093303958,-0.30975585937058825,-0.45839969410392156,9.960287475529412,9.976943542666666
1.103259958,-0.30848203770784316,-0.4559547783333333,9.976192635843137,9.992697228509805
1.113215958,-0.30475743012745093,-0.45208341710588235,9.993265955254902,10.009422318352941
1.123170958,-0.29985879336666665,-0.44609880335098034,10.01325967217647,10.028897871666667
1.133126958,-0.2961077701313725,-0.43848228903333336,10.034673964431372,10.04982158072549
1.143082958,-0.29313747630196074,-0.4310712298235294,10.056334802745099,10.071099326
1.153038958,-0.2912238087352941,-0.4249105116921568,10.07754070484314,10.092064404411765
1.162993958,-0.28926024492941177,-0.4201057972647059,10.09689751098039,10.11123317162745
1.172949958,-0.28565597534058823,-0.41564448637254897,10.11545304217647,10.129584321960783
1.182905958,-0.27970658246078434,-0.4101177439980392,10.134592652941178,10.148422919568626
1.192861958,-0.2732670323970588,-0.4037721162686275,10.154774214588235,10.168234372333334
1.202816958,-0.2678782384519608,-0.3966164084039216,10.174967516568627,10.188065100745098
1.212772958,-0.2653511406382353,-0.38842168471352945,10.192692422156862,10.205471986392158
1.222728958,-0.26481108721470586,-0.3799041029982353,10.207808047941176,10.22031371562745
1.232684958,-0.26501654232058824,-0.3712515079272549,10.220927824117647,10.233165706411764
1.242639958,-0.2649695811519608,-0.36159218283274513,10.233759963176471,10.245683212588235
1.252596292,-0.26444126802058826,-0.3504976070635294,10.247179116705883,10.25872384554902
1.262552292,-0.26342866784999996,-0.33778287102357063,10.261772299450982,10.272867921490196
1.272508292,-0.262741860777451,-0.32364462459906074,10.277102185431373,10.287739874235294
1.282463292,-0.26204037834019606,-0.30889001285592355,10.291938979156864,10.302143075843139
1.292419292,-0.2612214929872549,-0.2943995576763157,10.306150602372549,10.315934706215687
1.302375292,-0.2594604492147059,-0.28066928639200195,10.320435602450981,10.329862586215688
1.312331292,-0.25592075123039215,-0.2678077967018059,10.334632550333334,10.34372622027451
1.322286292,-0.2504439050970588,-0.2556096334998451,10.350311709980392,10.359025612823528
1.332242292,-0.24491716272254901,-0.24342614566259022,10.367590484372549,10.375912074
1.342198292,-0.24030909818333335,-0.2303503956488647,10.386260483509805,10.39419267752941
1.352154292,-0.23843945671274508,-0.21603310977435491,10.405447055470589,10.413018735960785
1.362109292,-0.23962522618725487,-0.20087932810768822,10.424348925274511,10.431640643411765
1.372065292,-0.24253975363039215,-0.18671173095278626,10.441624764686276,10.448737022039214
1.382021292,-0.2461909843872549,-0.17365065630180587,10.457509379588235,10.464525407333333
1.391977292,-0.2499742934245098,-0.16099755679200195,10.471685781941177,10.478631196647058
1.401932292,-0.2529357820362745,-0.14871427647631572,10.485096130313726,10.49197902290196
1.411888292,-0.25482890409313724,-0.13617564481357058,10.497890113313726,10.504691369294118
1.421844292,-0.2558209587519608,-0.12235145119592353,10.510252640509803,10.516899383098039
1.431800292,-0.2563404666637255,-0.10838637407631568,10.521265034137254,10.527753956901961
1.441755292,-0.2562700249127451,-0.09420703663121764,10.530246357333333,10.536564888588236
1.451711292,-0.2551811128460784,-0.08121346866062941,10.536885492411765,10.54303301770588
1.461667292,-0.2540452396127451,-0.06939099479788431,10.540466281372549,10.546484024313724
1.471623292,-0.25156510296764706,-0.05873667997043334,10.54156106372549,10.547427097843139
1.481578292,-0.24573604807913726,-0.047465999823374516,10.542620625098039,10.548335448431372
1.491534292,-0.2366784129399216,-0.034686692178276475,10.546976273529411,10.552609379215685
1.501490292,-0.22584505866345098,-0.021244058044943143,10.553380602745097,10.559018416666667
1.511446292,-0.2145068718399216,-0.006360303090041178,10.56091493490196,10.566573273137255
1.521401292,-0.2037468943869804,0.011270680149174506,10.568728099215686,10.574379471764706
1.531357292,-0.19416388118894118,0.03182499605309607,10.575411260392158,10.581108337647061
1.541313292,-0.1858106635595294,0.05376760146486077,10.575334948627452,10.581296917450981
1.551269292,-0.17731362735560785,0.07352944767074314,10.566834977254903,10.573168091039214
1.561224292,-0.16741069120658822,0.08980149213348822,10.553691720470589,10.560370116235294
1.571180292,-0.15560289270854902,0.1040747519138804,10.537677962333333,10.544725191705881
1.581136292,-0.1409069824222745,0.11806330961780195,10.520689760117646,10.528156502058822
1.591092292,-0.12523369284188235,0.13276215497662547,10.502885607588235,10.510693729588235
1.601047292,-0.11238687851835293,0.14848534079623335,10.479569388039216,10.487561116196076
1.611003292,-0.10174136891050982,0.16669746848250783,10.448924291352942,10.457208227529412
1.620959292,-0.11136840820266666,0.19222673304525295,10.439147563313727,10.448999420274511
1.630915292,-0.14329613181443138,0.20198585061976276,10.453793577431373,10.466979356352942
1.640870292,-0.15625447890070587,0.1679889005785863,10.475598234490194,10.492505977921567
1.650826292,-0.15139399808639215,0.13765785667074312,10.514030079784314,10.533080182039217
1.660782292,-0.16874908447070588,0.1334900530746647,10.561305299784312,10.581256474
1.670738292,-0.18912729599423528,0.15382130343348824,10.588167087431374,10.609795712039213
1.680693292,-0.19357980166737251,0.18764508417466472,10.606643371745097,10.630308461058823
1.690649292,-0.16918347527266667,0.20898306455701765,10.629487044490196,10.654999056156862
1.700605292,-0.13003547220698036,0.2161710582236843,10.652988173705884,10.681547544392156
1.710561292,-0.15511860568541175,0.21472700232956668,10.705980915862746,10.735942832823527
1.720516292,-0.23044431800305878,0.2103038473862333,10.789061090960786,10.829450626156863
1.730472292,-0.27959798477364706,0.217036904745449,10.822890741745098,10.868987822823529
1.740428292,-0.2942792196952157,0.25631405103329213,10.790194028960785,10.841225765666668
1.750384292,-0.29015837726737254,0.2866891210407432,10.733667458823527,10.78742744854902
1.760339292,-0.27097767550658824,0.321774983147998,10.665206882176472,10.723917089019606
1.770295292,-0.2563874278477647,0.3661885071119608,10.606088642705881,10.671620712764707
1.780251292,-0.24351126279482352,0.41596734442274513,10.55192187137255,10.625916128058824
1.790207292,-0.22059127808894113,0.46673236624627445,10.478222189529411,10.563547084980392
1.800162292,-0.2016688627477647,0.5250640061470588,10.396853162019607,10.496632321333331
1.810118292,-0.18222693949482352,0.5881445941019608,10.316018317764707,10.432496865823529
1.820074292,-0.1573052350340392,0.6432212380921569,10.234015314470588,10.364677132411764
1.830030292,-0.13311142865756861,0.688092633417647,10.160089632019607,10.300229939137257
1.839985292,-0.11408335069090195,0.7244611223941176,10.103102255627451,10.248764221666667
1.849941292,-0.1007639896222745,0.7545338798921568,10.061946662588236,10.210925030313724
1.859897292,-0.09101074219286273,0.7756370544450979,10.034891160098038,10.18537342090196
1.869853292,-0.08454771154580391,0.7931007385352942,10.017621190882354,10.169048279921569
1.879808292,-0.08202354880462744,0.8171213755941176,10.003477074215686,10.156668700705882
1.889764292,-0.08068515553599998,0.8482771750098038,9.986180689235296,10.142370037176471
1.899720292,-0.0786423447595294,0.8806246140490197,9.962949586823528,10.12250461762745
1.909676292,-0.0833237861222745,0.9133976386647058,9.937922219705882,10.101339812470588
1.919631292,-0.09592111924384313,0.9465962488529412,9.915483586980391,10.08350759290196
1.929587292,-0.110672795908549,0.9778753213313727,9.899079464333333,10.071511020137255
1.939543292,-0.12524836820462745,1.006034411264706,9.888031849823529,10.064284856999999
1.949499292,-0.13772242826345096,1.0295854366588235,9.878255121843138,10.057398127431373
1.959454292,-0.14800398882423527,1.0503334673686275,9.865070774078431,10.046431287803921
1.969410292,-0.15423808377913723,1.0727544896686274,9.842819986039215,10.026380026254902
1.979366292,-0.15457268209482353,1.0984921444019609,9.809815090568629,9.995892604294118
1.989321292,-0.14729957131274507,1.1246671250117646,9.772721638588235,9.96177958954902
1.999277292,-0.1309424097362745,1.1525004218470587,9.715520001666667,9.909654589235295
2.009233292,-0.11383386948921566,1.1798611719333332,9.650487590137255,9.850337906392157
2.019189292,-0.09754421459509803,1.2112752577666668,9.586168401470587,9.79277418462745
2.029145292,-0.07966375014411764,1.239598711790196,9.54579353782353,9.757839105901962
2.039100292,-0.07046229643039215,1.253455191217647,9.537055825607842,9.750802876098039
2.049056292,-0.07210887235784312,1.2422754983313726,9.560530538941176,9.773807505509804
2.059012292,-0.07883312449784312,1.2346795295235293,9.605087881490197,9.817915995058824
2.068967292,-0.09846876256647057,1.2530941772352941,9.647440984156862,9.862015733784313
2.078923292,-0.1285561954233333,1.2859053577941177,9.665776384843138,9.88535973282353
2.088879292,-0.15860840740176468,1.3232189402745096,9.656903659294116,9.883075826313725
2.098835292,-0.1818629904252941,1.3676823604745096,9.629334519039215,9.864500597490196
2.108790292,-0.20419009039392155,1.4245141780980393,9.594759359627451,9.844740712078432
2.118746292,-0.2289797165762745,1.4831686760333334,9.558393805705881,9.826316117764707
2.128702292,-0.2341014188762745,1.5362964315823529,9.496924572803922,9.782886252823529
2.138658292,-0.21374962299784311,1.6106565048980392,9.407710095235295,9.712887429960784
2.148613292,-0.20457752002333332,1.7363979653686274,9.308281563745098,9.636440651000001
2.158569292,-0.20332424387156864,1.8624476084862744,9.185583774,9.54172857662745
2.168525292,-0.18464837465784312,1.9604643698098039,9.056329031294117,9.44038888017647
2.178481292,-0.17259990018137253,2.0363242653999998,8.957199877352942,9.368108010529411
2.188436292,-0.18481860889313725,2.103293825007843,8.874656820607843,9.313830114313726
2.198392292,-0.2303797463637255,2.1854905431215683,8.793108753666667,9.262085384156862
2.208348292,-0.292635578795098,2.273375432607843,8.715162021137253,9.20812019007843
2.218304292,-0.28681239405,2.381033908590196,8.60850734009804,9.132841766235295
2.228259292,-0.22116068219117646,2.495830482005882,8.492883076058824,9.038125041333332
2.238215292,-0.16967950256745096,2.5906274682980395,8.448619240764707,9.012104433098038
2.248171292,-0.14803040445176469,2.6486039643764707,8.485827160607844,9.065002851039216
2.258127292,-0.15774549593254902,2.7054328469254902,8.544992361333334,9.138501642078431
2.268082292,-0.2065440188854902,2.7476744168862743,8.598824534392156,9.204738109254901
2.278038292,-0.26722665222470593,2.77881554092549,8.618741939470588,9.240801575509805
2.287994292,-0.3292183281070588,2.808442167337255,8.611016827450982,9.253729523019608
2.297950292,-0.3946058834011765,2.84132378965098,8.608915315215686,9.272493695666666
2.307905292,-0.44453440944235295,2.8721244452392156,8.612748520509804,9.294372618803921
2.317861292,-0.4802630525227451,2.895866250356862,8.622991925117647,9.315348437607843
2.327817292,-0.507805777132549,2.915137939396079,8.640986857411765,9.338282950686274
2.337773292,-0.5292464850772549,2.93256053247451,8.650249947666666,9.351665587784314
2.347728292,-0.5459382449717647,2.9563404935725495,8.63485549,9.34399371354902
2.357684292,-0.5545262684372548,2.9907659642588236,8.586852371823529,9.309594752392156
2.367640292,-0.552418886054902,3.040870594670588,8.508541690313727,9.252630631941177
2.377596292,-0.5449549955313725,3.0951136779450983,8.404188106470588,9.17384939790196
2.387551292,-0.5481542250529411,3.1408127638666663,8.280049195882352,9.077713989705883
2.397507292,-0.5620048343215687,3.1770579797882355,8.159018527509804,8.984108628490196
2.407463292,-0.5791544655980392,3.2090502750039214,8.058333784862745,8.905948042372549
2.417419292,-0.5910327058529411,3.24091049192549,7.980706975333333,8.846866768529411
2.427374292,-0.5892951426647058,3.2770676556705887,7.9225866606862745,8.804985172960784
2.437330292,-0.5684766702015687,3.3225965073568626,7.880920365019607,8.779754106156862
2.447286292,-0.531541712134902,3.3816736557882354,7.854786475431372,8.773978706039216
2.457242292,-0.4939610380192157,3.455217778807843,7.841340906235294,8.785368099333335
2.467197292,-0.47366207346235295,3.530951466278432,7.838388222843138,8.805967950137255
2.477153292,-0.48038045545647057,3.604210887239215,7.860680101862745,8.850271393647057
2.487109292,-0.49166874604078437,3.688629455572549,7.939149277333333,8.951666306
2.497064292,-0.4807590798662745,3.799267030611765,8.101097797745098,9.140506163098038
2.507020292,-0.43926888857411756,3.9448231685921566,8.357849174666667,9.434572779294117
2.516976292,-0.3745798806329411,4.118268369847059,8.666994538941177,9.791269782529412
2.526932292,-0.32522075875058826,4.29153159655294,8.972080697215686,10.142537129980392
2.536887292,-0.3251972781819608,4.453902767533333,9.225051700078431,10.435829504196077
2.546843292,-0.36055316699372547,4.603069045239216,9.417621836607843,10.664372911843138
2.556799292,-0.40717386581137255,4.751554386021569,9.55125570837255,10.831199133999998
2.566755292,-0.4603573877478432,4.893485708901961,9.64217252817647,10.957893275568628
2.576710292,-0.5090297025556862,5.019943327176471,9.701396430333334,11.059714057137256
2.586666292,-0.5530352513792157,5.14323400172549,9.749405418764706,11.158356233803923
2.596622292,-0.5942554159674509,5.271854768745098,9.800660597705884,11.267554750352943
2.606578292,-0.6350499949733334,5.392542033568627,9.843559624019608,11.370740936156864
2.616533292,-0.674030698894902,5.493928258647059,9.862470299058822,11.45020112907843
2.626489292,-0.7014501504439214,5.58935335054902,9.860674034411765,11.512903799705882
2.636445292,-0.7070854905223528,5.6802760405490185,9.848737092705884,11.563750433862745
2.646401292,-0.6855890162007842,5.755974507137256,9.838757844666667,11.604991128490196
2.656356292,-0.6442103576850979,5.8119052573725485,9.836318799058823,11.641868120196078
2.666312292,-0.5981209070668626,5.8519396524705884,9.848974833647059,11.68294194927451
2.676268292,-0.541846753300196,5.879623260588235,9.855766592470587,11.713223100725491
2.686224292,-0.47609524895313726,5.889191598431373,9.835954850039215,11.712128559137255
2.696179292,-0.40636965583156864,5.876840811431372,9.783736967098038,11.672252194568628
2.706135292,-0.34157792036098045,5.8432518365294115,9.703154539117648,11.59558771609804
2.716091292,-0.29083344404725486,5.796842462960784,9.605343232901962,11.491438219156862
2.726047292,-0.2571153259394117,5.717821493803922,9.505133972078431,11.365081419568627
2.736002292,-0.23875644460607842,5.616799217766666,9.387422871215687,11.216772981156861
2.745958292,-0.23834259931941176,5.510614148407844,9.247980490274509,11.053693528686274
2.755914292,-0.24920236925274508,5.396712772241176,9.089281095607843,10.877980269921569
2.765870292,-0.25195840275666664,5.292133187792157,8.9140631102549,10.692379431156862
2.775825292,-0.23397227568411763,5.200426833317648,8.739323541886273,10.510741524901961
2.785781292,-0.19612450993509803,5.114300052531371,8.578601881943136,10.337866757203921
2.795737292,-0.15124430938019606,5.032323464900196,8.432758106818236,10.172152454454903
2.805693292,-0.11003295001745096,4.953202703260981,8.300638732820785,10.017553948386276
2.815648292,-0.07841340906843135,4.8752412954394115,8.172249836543921,9.86884170592157
2.825604292,-0.059332499787647035,4.802254836276667,8.032469922137842,9.719858993180392
2.835560292,-0.05004592895823528,4.740013679186471,7.8820180824633335,9.571240675733334
2.845515292,-0.0418247896115686,4.6911652599884315,7.7333126111986275,9.428956688307844
2.855471292,-0.0308740324170588,4.646208747527647,7.597994007690785,9.296235047837254
2.865427292,-0.01980000215745096,4.593847046011961,7.488515786463334,9.178895334896078
2.875383292,-0.019773586500588216,4.532900256098236,7.417131877110392,9.08729509352353
2.885338292,-0.01801254272607841,4.467982312478628,7.373942278580981,9.01904456160196
2.895294292,-0.00023187076529409393,4.403721825194314,7.358773821561373,8.97516475652353
2.905250292,0.02131449979058826,4.34740071026098,7.360349955737844,8.947545703347059
2.915206292,0.03729597202980395,4.304181760986471,7.370226476228039,8.934763398033333
2.925161292,0.04992265588862749,4.275705683182549,7.380960038031961,8.930158844994118
2.935117292,0.05431939517490198,4.261370786868824,7.385993688149608,8.927596010092156
2.945073292,0.042452895217647085,4.259647899045294,7.377476106424118,8.919829688190196
2.955029292,0.018259088849019632,4.273856587221765,7.360176786424117,8.912392049131373
2.964984292,-0.00688861622941174,4.313389084868824,7.344547522933921,8.921898412268627
2.974940292,-0.02469276877450978,4.391952182653137,7.334204325835882,8.962018479327451
2.984896292,-0.025661342850980366,4.503250149162941,7.324976456541764,9.023185195798039
2.994852292,-0.04430786132745095,4.6158630282217645,7.312889826149608,9.079287929915687
3.004807292,-0.11956019681960782,4.693375369908039,7.304962194188823,9.113949736778432
3.014763292,-0.24396913415294116,4.7145401809276475,7.289142150855491,9.10940035697451
3.024719292,-0.39127164054509805,4.698420760202157,7.199381749679021,9.018970599327451
3.034675292,-0.5472854434666666,4.7305744843198045,7.010471649090785,8.884881276778431
3.044630292,-0.6719908231725491,4.857583896280588,6.765043783718236,8.804678135405883
3.054586292,-0.725488397917647,5.075345764123725,6.523369876639804,8.804586373445098
3.064542292,-0.7124742844274509,5.331213684006079,6.361438966620196,8.86799033815098
3.074498292,-0.6334562503490195,5.54503374881,6.3241107087770585,8.969051890700001
3.084453292,-0.4958277444274509,5.692198306731568,6.4355583638750975,9.14285207932745
3.094409292,-0.33623902264313726,5.79111320035902,6.66818931113,9.394440245209804
3.104365292,-0.19365904864313727,5.843973864202158,6.948160050149608,9.66377431422941
3.114321292,-0.06743036605490196,5.853923761535491,7.244819614071176,9.928388467366666
3.124276292,0.06160131119999999,5.837190910633529,7.527822283482941,10.165984462660784
3.134232292,0.19839919149411764,5.795750615594313,7.7627014967770585,10.347867284033333
3.144188292,0.32120557900392155,5.736057101849216,7.922533829620196,10.457915718739216
3.154143292,0.4143501192352941,5.667396940202156,7.9982557767966656,10.4972819807
3.164099292,0.4716310030196078,5.586042588025687,7.992444332345687,10.465503614092157
3.174055292,0.49281635960784315,5.48692223926098,7.915222562894705,10.365552106249021
3.184011292,0.4839817900196078,5.3695486717931376,7.8103934972280395,10.231820879347058
3.193966292,0.4527819644901961,5.241511984263725,7.716978930286862,10.108807067719608
3.203922292,0.4029855167335294,5.118065750851961,7.639698459384902,10.014239488366668
3.213878292,0.3450325012452941,5.00553211867549,7.5687548109854905,9.956694503935294
3.223834292,0.2915496018531373,4.916584732793138,7.48971916643647,9.935397460915686
3.233789292,0.2447674740198039,4.859870318087254,7.39638678153451,9.934906471837255
3.243745292,0.2025816704354902,4.829932573948039,7.295916299220785,9.938451526719607
3.253701042,0.1716049104662745,4.818438828257843,7.195586700416863,9.938120820915687
3.263657042,0.15774843103882352,4.820836782861765,7.102973408377646,9.930756988543138
3.273612042,0.1616315325564706,4.826084693304902,7.028548763456079,9.933459123209804
3.283568042,0.1825263169211765,4.830041171648039,6.9656384097462745,9.952749305837255
3.293524042,0.20672599343490197,4.829791690446078,6.907967161258039,9.987993603378431
3.303480042,0.23012145995843136,4.819140310692941,6.854701457265294,10.037126661441176
3.313435042,0.25183219460745093,4.79477920516549,6.803226147772548,10.08710683847059
3.323391042,0.26501360724666667,4.7549649405360785,6.76110491579451,10.12336599397451
3.333347042,0.2762285210070588,4.705955092326275,6.740982055612353,10.14810877861765
3.343303042,0.28496623319333336,4.655865137279216,6.74002228675549,10.170243664025488
3.353258042,0.2820869266247059,4.606611678026274,6.750920212637843,10.187210041509806
3.363214042,0.2643855016345098,4.564731122036078,6.768674468949607,10.200349721607843
3.373170042,0.23219362146588235,4.537863464206667,6.792439754667254,10.221360827529411
3.383126042,0.1952028970090196,4.530534587038039,6.819768218961372,10.253095255313726
3.393081042,0.14697671329137255,4.554408470461569,6.865232499039804,10.310638707901962
3.403037042,0.09538987103058824,4.612135485334118,6.923625775471176,10.39177068862745
3.412993042,0.04386466529823529,4.695591349738039,6.980237462628038,10.487014133960784
3.422948042,-0.01192813650960784,4.802859461032156,7.040063054667255,10.601362827098038
3.432904042,-0.05858112113313725,4.9266579032086275,7.111394132686862,10.733622794431373
3.442860042,-0.0788477998919608,5.05907665464,7.201298352294706,10.883630592117646
3.452816042,-0.06402568146843136,5.203171126326275,7.333505778412352,11.074588141039218
3.462771042,-0.019189507009607844,5.339326225581177,7.509727558588824,11.29856189609804
3.472727042,0.02217154107078432,5.450691698620392,7.716300928275098,11.531700727862745
3.482683042,0.032259386815882356,5.527341128757647,7.928357014177059,11.744677449039218
3.492639042,-0.006806434209607836,5.5746809203262755,8.118884339941765,11.923562577666667
3.502594042,-0.08266632981745098,5.627209921110588,8.244159123667254,12.06383292198039
3.512550042,-0.15243594903313723,5.713724131502746,8.255664609549608,12.140602321392157
3.522506042,-0.2052790025233333,5.842089547189019,8.199187935824119,12.180960563156862
3.532462042,-0.24738849420960785,5.985482536345882,8.205982629745685,12.276163512568628
3.542417042,-0.237224336562549,6.056983848698823,8.377520033471177,12.449099995117647
3.552373042,-0.1731693043860784,6.0230602753654905,8.721249362373136,12.660375975901962
3.562329042,-0.10433303838215682,5.897257178306666,9.166705384745686,12.883488976098038
3.572285042,-0.057169351076274466,5.728657782620392,9.59026282770647,13.093053865117648
3.582240042,-0.042655415311568586,5.579168646934118,9.889848659275097,13.256514333745098
3.592196042,-0.05657353125274506,5.46640901418902,10.008416801431961,13.305093984921568
3.602152042,-0.06943208586058819,5.384080217836079,9.940578460255491,13.207203366882352
3.612107042,-0.059238577488039165,5.32367054636549,9.738721753000588,13.004966174137255
3.622063042,-0.04245583033117642,5.2738799687576465,9.448319764569215,12.73107148354902
3.632019042,-0.0417073867233333,5.217488412071373,9.120445699824117,12.421295066568627
3.641975042,-0.07435713827235291,5.150439605483136,8.791350644686862,12.107999363960785
3.651930042,-0.14788952101745095,5.071923468855687,8.496176227741765,11.822945673686277
3.661886042,-0.23328253357431372,4.976072791369412,8.259961556310392,11.620700413313724
3.671842042,-0.32983762856450977,4.875440880036078,8.083214398035881,11.520405254529411
3.681798042,-0.4236132094860784,4.780547036330196,7.964185449428039,11.509749006960785
3.691753042,-0.49592166681941174,4.712958176327451,7.880365635996667,11.543496223764706
3.701709042,-0.550379010407647,4.680687049190196,7.804640753761373,11.583249409686275
3.711665042,-0.5829436448470589,4.670279280484314,7.7357839422319605,11.619210683215686
3.721621042,-0.6005834333,4.677032883366667,7.683519098121568,11.644509210235293
3.731576042,-0.6041906379666666,4.692066327033333,7.650980879356863,11.657777759686276
3.741532042,-0.5929669189862745,4.705062830072549,7.6255602124941175,11.667738452882354
3.751488042,-0.5713266260862744,4.714487349329412,7.598792347141176,11.67968701535294
3.761444042,-0.545283723754902,4.722362150066666,7.573224926631373,11.693032115137255
3.771399042,-0.5191615744470588,4.732185839247059,7.550962398278431,11.707702624156862
3.781355042,-0.5014689546745098,4.743700130449019,7.533733520023529,11.722707326372548
3.791311042,-0.5002068733039216,4.753726339663333,7.528233193298039,11.72697857237255
3.801266042,-0.51163604739,4.765217150282157,7.542949649082353,11.70983534909804
3.811222042,-0.5360881401762745,4.7794639944056865,7.584915322198039,11.667772345847059
3.821178042,-0.5660229492449019,4.799369659186079,7.650613995231373,11.627968767060784
3.831134042,-0.5912909923135294,4.829688962805686,7.732332296447059,11.621985745707844
3.841089042,-0.6136415728645098,4.868792939791961,7.81732613907451,11.6451795841
3.851045042,-0.6322880913468628,4.916056419582157,7.894342453409804,11.67931858474706
3.861001042,-0.6467139749213725,4.982007508876275,7.963196329850981,11.729049627629411
3.870957042,-0.656006415897843,5.061815077582157,8.025866007576472,11.798191042864707
3.880912042,-0.6679462926821568,5.147821520378236,8.080402598145097,11.876281735452942
3.890868042,-0.6721904081723529,5.237487999146862,8.127839247243136,11.955747119158824
3.900824042,-0.6501362699939216,5.325792604068432,8.181871005262746,12.040688052884313
3.910780042,-0.6009503174096078,5.412309749558627,8.256697755184314,12.144806688178432
3.920735042,-0.5217268281939216,5.494758883931176,8.379686117203923,12.286492220766666
3.930691042,-0.427684155644902,5.5750037785782345,8.547381510517647,12.46106779037451
3.940647042,-0.3563413373252941,5.64495537226451,8.714868513615686,12.630716049198039
3.950602042,-0.3455255934821569,5.693052412833137,8.857471968321567,12.772395804884313
3.960558042,-0.3650526338527451,5.7482846155782354,8.95629000459608,12.88451332998235
3.970514042,-0.409736184517451,5.820777982637059,8.99012259067451,12.95498568645294
3.980470042,-0.4401083194547059,5.9107056830292155,8.954843013811765,12.984724873903922
3.990425042,-0.38381655525862746,6.016902492833137,8.927555640478431,13.034092735276472
4.000381042,-0.22209110037627447,6.108391652048824,8.961399966752941,13.123015309590196
4.010337042,0.007816099270784336,6.159676181852745,9.066237837733334,13.237778090178432
4.020293042,0.25279783360411767,6.159006985186079,9.231476574988235,13.363730874296076
4.030248042,0.4757929364276471,6.11081602244098,9.397789548909804,13.463371135864707
4.040204042,0.6778580340158824,6.033236174205687,9.508306785968628,13.507031780178433
4.050160042,0.8550513233884315,5.948177759891961,9.530137858713726,13.485547630374509
4.060116042,0.9989374048590196,5.858842944401765,9.43085021067451,13.366417969590195
4.070071042,1.1198594755217648,5.796378721656666,9.20439759185098,13.151093828413726
4.080027042,1.2101335143923528,5.744336943068431,8.87485640577255,12.848269480178432
4.089983042,1.2533407233727452,5.6795275970684305,8.494382898713726,12.489236996060786
4.099939042,1.249448816627647,5.600395095127255,8.120662994517648,12.124730780256861
4.109894042,1.2124845078237256,5.493822596127255,7.799240220164707,11.791529225315687
4.119850042,1.149312932627647,5.36392507236255,7.542934974301962,11.49867033502157
4.129806042,1.0659333801139215,5.226707476635686,7.344518172443138,11.246734694264704
4.139761042,0.9803760034707844,5.094288725204315,7.209378608384314,11.111001682558824
4.149717042,0.9049915896864706,4.984963127772941,7.138100361658824,11.077275297107844
4.159673042,0.8587084242550981,4.904594960125882,7.1110624696039215,11.112164619225489
4.169629042,0.8189147051256862,4.86222424694549,7.104696296368628,11.147388181519608
4.179584042,0.7857131598609804,4.851622763435686,7.113519125662745,11.159747820794118
4.189540042,0.7472813145864706,4.858185586572941,7.128091762878432,11.166604198676469
4.199496042,0.6888704277237254,4.868273432318039,7.140853460074509,11.187748436774509
4.209452042,0.6327371574492157,4.883544616906275,7.1468938402117645,11.211613104656863
4.219407042,0.5892922075668627,4.908618945161177,7.1377041268,11.233015495421569
4.229363042,0.5671412119786275,4.937708453210196,7.1179099948,11.25124683330392
4.239319042,0.5686791902139215,4.9553687871788235,7.100343583152941,11.261127574578431
4.249275042,0.5858112110570588,4.960493424557255,7.108347527113725,11.24849394169608
4.259230542,0.6087869621472549,4.955797307829804,7.151531255505883,11.208840345303921
4.269186542,0.6309878539786274,4.943349663435686,7.219055543900588,11.166584293715687
4.279142542,0.6407411014080392,4.923112335406274,7.295907494151568,11.136621834127453
4.289097542,0.632490611332549,4.8962035865631375,7.379953308230001,11.117373005088236
4.299053542,0.6141669508756863,4.8694856174605885,7.471917949131961,11.116869324362744
4.309009542,0.5907773545029412,4.8419986592417645,7.56254419677902,11.146072666343136
4.318965542,0.5687349566029412,4.8174790597770585,7.644969850565294,11.210700041260784
4.328920542,0.5464518827382353,4.8009986251358825,7.721029331120196,11.28895661657647
4.338876542,0.5225985448264706,4.794250892412353,7.787300343375098,11.359283454537254
4.348832542,0.4933534779107843,4.80161499045549,7.845473489355491,11.423489082027452
4.358788542,0.45678246888921564,4.824904794351569,7.899305662433921,11.487671583674508
4.368743542,0.4203435381598039,4.846225164292744,7.941570713002548,11.542044792458823
4.378699542,0.3843771541656863,4.856436283116274,7.97150258700255,11.58160014957647
4.388655542,0.3624785748519608,4.85638638688098,8.00057154955157,11.611114315968628
4.398611542,0.37200582167549023,4.840049770822157,8.044524267041766,11.63668692094902
4.408566542,0.38931981703588237,4.824743365351568,8.090041378433922,11.665091960988235
4.418522542,0.41960683486333333,4.810021039410392,8.129641382826078,11.691810589419607
4.428478542,0.5044597939809804,4.779220383822157,8.173649866747647,11.731202308635295
4.438433542,0.6222149209417648,4.734152338528039,8.213833950473138,11.770176537066664
4.448389542,0.7565766906809804,4.683812902312353,8.284713027335883,11.83160759138039
4.458345542,0.9142253292300001,4.636740202214314,8.391094746551568,11.921107011576469
4.468301542,1.0424586666319609,4.565412059273138,8.490074211845686,11.982087380792159
4.478256542,1.1356266874339216,4.494148487900588,8.566136627335883,12.010162013537256
4.488212542,1.233816618077059,4.414969024763334,8.640763792237843,12.028448216478433
4.498168542,1.3059724516064706,4.318860060841764,8.686867918316274,12.016289348047058
4.508124542,1.3466613679790196,4.232756760645686,8.701739933022157,11.988303487066666
4.518079542,1.4064957652339216,4.159917054959411,8.715842958512352,11.978384993537256
4.528035542,1.5043305520378432,4.106977144175098,8.730424400865294,11.993294652164705
4.537991542,1.6254932986456863,4.070811175155491,8.744368932433922,12.023096246478431
4.547947542,1.743462685920196,4.043186268488824,8.755032052433922,12.053125659811764
4.557902542,1.8310012368025488,4.023371591037844,8.752637032826078,12.066979350988236
4.567858542,1.884061485684902,4.011581403037843,8.743740826747647,12.068996713929412
4.577814542,1.8993766963711765,3.981485165037843,8.749930895767255,12.06541480275294
4.587769542,1.899491164214314,3.9512597837633336,8.795060577531961,12.089197790399998
4.597725542,1.9077798102339216,3.9417002511358827,8.873497467139805,12.151917068831372
4.607681542,1.928472074567255,3.950980951822157,8.95836510172804,12.231562492478432
4.617637542,1.9502591211162743,3.9818050879986275,9.030928910394705,12.31180062604706
4.627592542,1.978218626077059,4.036934563312353,9.08739384390451,12.3949541694
4.637548542,2.0215872640613726,4.113073290843137,9.128643359214314,12.483996270686275
4.647504542,2.06034490243,4.199434877470589,9.14950292270451,12.502573729490196
4.657460542,2.094864295459412,4.280175799392157,9.162525841414313,12.47784245380392
4.667415542,2.1328235939927453,4.357239074901961,9.168686559531961,12.447568979666666
4.677371542,2.1637416525058826,4.429761792549019,9.15450722208098,12.43415467617647
4.687327542,2.200943702207843,4.49843662954902,9.129380062512354,12.428148775764706
4.697283542,2.2477228949705883,4.5697970583,9.101910714728039,12.407512438450981
4.707238542,2.300210804617647,4.6347003265509805,9.071512164139804,12.375678663156863
4.717194542,2.340568057754902,4.682621262690196,9.048674361473138,12.351035952588235
4.727150542,2.361257387029412,4.710483910260784,9.04001296117902,12.340012589333336
4.737105542,2.3589797704019606,4.7275073334,9.042176109943725,12.33945290080392
4.747061542,2.3220653578529413,4.751155216198039,9.055862355139803,12.350057537764707
4.757017542,2.2685560428137252,4.778818278798039,9.056317291433922,12.37459023445098
4.766973542,2.215619067,4.807235655147059,9.030905429786863,12.411087361882355
4.776928542,2.1727376511313725,4.840431330260785,8.994727720549019,12.43059583845098
4.786884542,2.140736550701961,4.876250960607843,8.969386300656863,12.420329726156863
4.796840542,2.119759584287255,4.909593389368627,8.952723891486274,12.403700790980391
4.806796542,2.117707968291177,4.934999380860784,8.943396229623529,12.387369462686275
4.816751542,2.1346315989441176,4.960132410569608,8.940742923662745,12.374626599764706
4.826707542,2.164572278165098,4.989028203808823,8.949598038780394,12.373903495039215
4.836663542,2.2090650490807846,5.019702651261765,8.97921292489804,12.397053896666666
4.846619542,2.26804534012,5.049126757640197,9.023972787447057,12.438389282686275
4.856574542,2.3367172420415687,5.073678642904902,9.07909345752549,12.492406985705882
4.866530542,2.40772839712,5.09550678047353,9.149532273368628,12.561444462843138
4.876486542,2.4849413613356863,5.12468140565,9.233175982368628,12.64456608552941
4.886441542,2.5844667501788234,5.174240112493137,9.322325888368628,12.741235044862744
4.896397542,2.701784551257255,5.246812726375491,9.40580229825098,12.84891950619608
4.906353542,2.821197994414118,5.338351781689216,9.478078469741176,12.972066685862744
4.916309542,2.9624513154439214,5.437463325159804,9.559544354584313,13.121825534882351
4.926264542,3.1039159617184318,5.519812667100981,9.630543769290195,13.26406239037255
4.936220542,3.1903157042282353,5.570791949179412,9.639278546349018,13.329186695666667
4.946176542,3.2096930558752943,5.59244398237549,9.567730273015686,13.288611069980393
4.956132542,3.1669965496007846,5.616291450159804,9.396019699878432,13.146348044294118
4.966087542,3.059223605777255,5.639258395944117,9.162062099486274,12.941640277235294
4.976043542,2.9399363707419606,5.6546499184931385,8.944153478113726,12.752919302137254
4.985999542,2.8231322074282352,5.645653919865687,8.78556561634902,12.611301093509804
4.995954542,2.6850223495262746,5.608962572806862,8.668021814584312,12.485223899000001
5.005910542,2.549656784845882,5.5599116335911765,8.558766658898039,12.351659369196078
5.015866542,2.424472988257647,5.5108959151598045,8.415059616937254,12.185129490960785
5.025822542,2.273677745041961,5.4652320502578435,8.193919480270589,11.947112532137254
5.035777542,2.09128350641451,5.415558875551961,7.90862451889804,11.643003498411765
5.045733542,1.8966793643360784,5.355087567493137,7.581707287996078,11.295161029
5.055689542,1.716644924355686,5.287331408297058,7.2417994241529415,10.936732533313725
5.065645542,1.5768297890615686,5.219862886277451,6.913869593094118,10.600131942588236
5.075600542,1.4923290386890196,5.165103230140197,6.607166209603921,10.307962798215685
5.085556542,1.469250560041961,5.125647044414706,6.317398196956863,10.068061471058822
5.095512542,1.505930166767451,5.098673723944117,6.04688426297647,9.888749311058824
5.105468542,1.587393116630196,5.088817748963725,5.815148512878431,9.779449459686274
5.115423542,1.6956239318458826,5.096695484767647,5.6438635252705875,9.741761472235295
5.125379542,1.808022550649804,5.115864446238236,5.53588219125098,9.756185403803922
5.135335542,1.8967938321792157,5.141505243571569,5.483878568643137,9.796424095647058
5.145290542,1.9532587656890197,5.179669997199019,5.478181592035294,9.853043325549018
5.155246542,1.9931698877282353,5.237388206846079,5.505527666760784,9.927771056058823
5.165202542,2.0159489889341176,5.310412821963726,5.549627137913726,10.007377697509805
5.175158542,2.025796158694902,5.390343663748039,5.610949617168627,10.07817056827451
5.185113542,2.0457458495739216,5.479032763218627,5.7007276287176465,10.13614334419608
5.195069542,2.0635147812425494,5.571590288846078,5.808221740619608,10.185017755117647
5.205025542,2.075724684734706,5.659475178330393,5.922093766050981,10.224825159254902
5.214981542,2.0914508056288237,5.741962468648039,6.0401482704431375,10.251523587058823
5.224936542,2.1235076724386275,5.814957733038235,6.164894741168627,10.267763871607844
5.234892542,2.1731573665366666,5.8809058872715685,6.310905815462744,10.282682014745097
5.244848542,2.2366165789013723,5.938999786259804,6.476000734109805,10.306366363078432
5.254802917,2.322743359685686,5.983260686414706,6.64400431005098,10.341475160686272
5.264758917,2.41285303447,6.0161892698872546,6.821881471423529,10.393234160294117
5.274714917,2.4919591207445095,6.041102169126471,7.0076363686,10.465288290117646
5.284670917,2.551978427607255,6.051072611953923,7.1835499661490205,10.561604302764707
5.294625917,2.6027493195739217,6.050447441414707,7.328659973045099,10.676940871490196
5.304581917,2.6599392161033335,6.046000805887452,7.449940122607844,10.790614909372549
5.314537917,2.7090224411209807,6.044345424740392,7.547575324470588,10.890031032725492
5.324493917,2.739688083350392,6.04234076991196,7.613494127960784,10.958100621313724
5.334448917,2.7610113883647056,6.035323010477451,7.636613697627451,10.982869303019609
5.344404917,2.777547589390196,6.023770563326471,7.608627777,10.957088559607845
5.354360917,2.797327046037255,6.002426712793137,7.537032542411764,10.891350436607844
5.364315917,2.815131198586274,5.967622617697058,7.435707953862745,10.796749881980391
5.374271917,2.8222751661549017,5.916097411971569,7.297959109941176,10.65932526845098
5.384227917,2.8282216239588234,5.8424182755833325,7.125676197686275,10.487146985764706
5.394183917,2.8306371889980393,5.756332585818627,6.932301851052942,10.306066786686275
5.404138917,2.8319491666058823,5.667000705367648,6.705320919190196,10.133593041509803
5.414094917,2.8116384617627452,5.586720589897058,6.442532097268628,9.953682101117646
5.424050917,2.739917019037255,5.501958618112745,6.141522755386274,9.722677933588235
5.434006917,2.6368079061352945,5.431839725191177,5.859368322072548,9.476421364509804
5.443961917,2.555990672390196,5.4091251956617645,5.671908147543137,9.303762911568626
5.453917917,2.585520441350981,5.416903138936274,5.607700491464707,9.277622712745098
5.463873917,2.757418859115686,5.4237682746225495,5.6586034616607845,9.397629896078431
5.473828917,3.0883600750960785,5.454386955799019,5.800314654209804,9.652719479607843
5.483784917,3.5184568606607844,5.524338549720588,5.997102490680393,9.998247939215688
5.493740917,4.032015380817647,5.58543502834804,6.208345561268627,10.380356734117647
5.503696917,4.556301592562745,5.667693383053921,6.41683259852353,10.773493759411764
5.513651917,5.015699211419608,5.775613080504901,6.576198254798039,11.123934424509805
5.523607917,5.3932758015960784,5.891210928740197,6.672057737347059,11.408692756666667
5.533563917,5.700363679635294,6.011469672857843,6.722291510876471,11.63925178509804
5.543519917,5.947831420811765,6.130225659720588,6.743400555582352,11.828179334705883
5.553474917,6.145981131125491,6.24370438542647,6.748748258503921,11.987694713921568
5.563430917,6.294856836615686,6.351348185995098,6.740958574876471,12.121429870588234
5.573386917,6.395350799537256,6.44379417879902,6.72677923742549,12.226529216607842
5.583342917,6.443527087007843,6.505322113132353,6.717387003954903,12.291191700980393
5.593297917,6.427721719145098,6.534021256485294,6.723227799131372,12.307404874607842
5.603253917,6.3448968954392155,6.529647997779412,6.737829787092157,12.262913597411766
5.613209917,6.208597977556862,6.490535215583334,6.7472631115823525,12.156778833039215
5.623164917,6.0349443861745105,6.421264558779412,6.749035895660785,12.008435936392157
5.633120917,5.849694321552941,6.326696508171568,6.7491210127784305,11.852867722490197
5.643076917,5.679463025239215,6.2119586362088235,6.757468360268627,11.729450504549021
5.653032917,5.537508221768627,6.083346674395099,6.779164419543138,11.650939671607844
5.662987917,5.425356149082354,5.948755968983334,6.809334034445097,11.605905239176472
5.672943917,5.337353856670588,5.8136486907284315,6.8362750690921565,11.576886463392157
5.682899917,5.258770213376472,5.678186268630392,6.855385329111765,11.549501967196079
5.692855917,5.17096457084706,5.539316226846079,6.862115451386274,11.516541809941177
5.702810917,5.081521157613726,5.400220184434314,6.850759654131371,11.481947210411766
5.712766917,5.006629836103921,5.273856488512745,6.820493181819608,11.452577057686275
5.722722917,4.946120372072549,5.168378771738236,6.771090033840784,11.427203679607842
5.732677917,4.893016097105883,5.086566548191176,6.700064203409411,11.398171234058823
5.742633917,4.844848614850981,5.02497110715,6.603617706095687,11.35162119937255
5.752589917,4.806522432211765,4.978253550936275,6.4862676191937245,11.280314834941176
5.762545917,4.775604373705883,4.944503147034314,6.356546199801569,11.18878667537255
5.772500917,4.7553758509039215,4.923672934289216,6.215022852054509,11.088402059039216
5.782456917,4.75833146937451,4.916928136642157,6.069431493187843,10.995097586411765
5.792412917,4.793977930394118,4.925337120661765,5.9356802186309805,10.926808094137256
5.802368917,4.859130679864706,4.938721053344118,5.8337040438858825,10.894271271352942
5.812323917,4.9404351357862755,4.952052154704705,5.770086337591765,10.895125437960786
5.822279917,5.030726785100001,4.9591579663282355,5.735933828689804,10.91859482109804
5.832235917,5.127736816413726,4.9576258582458825,5.732731664101569,10.965231221647057
5.842190917,5.221142578139217,4.953108780968628,5.759085684160391,11.032562442568628
5.852146917,5.301660434511764,4.9545234861313725,5.805779759807451,11.111930004803922
5.862102917,5.36212293737451,4.976941573370588,5.8567032755721575,11.189536279411765
5.872058917,5.428338183237255,5.0254788748196075,5.883330257434902,11.26153860847059
5.882013917,5.533983199178431,5.101805447015687,5.902827947062353,11.374163489156864
5.891969917,5.681878590315687,5.207356540619608,5.946143753729019,11.554944098313724
5.901925917,5.870744664864706,5.327330582717647,6.013858821872156,11.788464873470588
5.911881917,6.111529244786275,5.450762140756862,6.12478990420549,12.066022809431372
5.921836917,6.401505647452941,5.573803334188235,6.275291640127058,12.382332252960786
5.931792917,6.716497676962745,5.697457957737255,6.449916740656471,12.720058809509801
5.941748917,7.013832307668627,5.8139187175215685,6.607034131009413,13.042341926431373
5.951703917,7.252788337296079,5.920238800188235,6.6940150180878435,13.298692504666667
5.961659917,7.411778304158823,6.025801634109804,6.707020326519215,13.46460384937255
5.971615917,7.509501558080392,6.127237755286274,6.678808405342745,13.562962268196078
5.981571917,7.563128276119608,6.207878884698039,6.619822244166275,13.601986792117646
5.991526917,7.588378708864705,6.249239932737255,6.52108638985255,13.579084447999998
6.001482917,7.552312532394118,6.28869318332549,6.382113620636863,13.490212574078432
6.011438917,7.469029837296079,6.311598492541176,6.210784607107451,13.34438190447059
6.021394917,7.3650255271,6.313435848227452,6.054949843578038,13.188835729960784
6.031349917,7.251347216511765,6.2927112982274505,5.947714018087844,13.048079893294116
6.041305917,7.140967927884314,6.238879125090197,5.902155815734902,12.927920444274509
6.051261917,7.0325962291,6.157703812345098,5.907063257891765,12.822672414274509
6.061216917,6.922299122472549,6.062475370188236,5.953005954891765,12.733766991137253
6.071172917,6.812864927335295,5.954599698854902,6.030148477460392,12.65884591682353
6.081128917,6.704173305649021,5.8403108931098044,6.116733129636862,12.591712065450983
6.091084917,6.595634307778431,5.726518114678432,6.191037436578038,12.52858957582353
6.101039917,6.499613396060785,5.617183712031372,6.244567297127058,12.473269250294118
6.110995917,6.420084659262745,5.519216846952942,6.284493094519216,12.435656839941176
6.120951917,6.349035348243137,5.432332817342157,6.308989213401569,12.416280885666668
6.130906917,6.281194071958824,5.355269541836274,6.305710736911372,12.411561607019607
6.140862917,6.218406991305883,5.293001969091177,6.270809784401569,12.42138145915686
6.150818917,6.170048729286275,5.250954113936275,6.20804031417804,12.430419551725489
6.160774917,6.133386733011766,5.227684855553921,6.1235248884505875,12.431595988431372
6.170729917,6.106589516933333,5.217168489142156,6.024084616744706,12.430571534137254
6.180685917,6.08313241387451,5.215284172299019,5.918049236097647,12.439088543019608
6.190641917,6.058545307737256,5.2168808519852945,5.801920139548627,12.464508139058823
6.200597917,6.047054497129412,5.219258261083334,5.681491161136863,12.495015805117648
6.210552917,6.057676526149019,5.224749782593137,5.566988095019216,12.520154108705881
6.220508917,6.088917442678432,5.230164992193137,5.46235861433098,12.540335600137254
6.230464917,6.133351512129411,5.2330178831049015,5.374230113780392,12.557255636784316
6.240419917,6.186203370821568,5.231074864808823,5.30569909534902,12.571550962294118
6.250375917,6.247094394337255,5.222844920242511,5.258875876505883,12.582651813470587
6.260332292,6.31683172774902,5.205683548674078,5.237435168584314,12.596999760098038
6.270288292,6.384837368117648,5.181730418288001,5.24530996932353,12.622083755666667
6.280243292,6.441912796801961,5.1539616930544705,5.2841116337882355,12.658336543588236
6.290199292,6.48637915207647,5.126471799757412,5.345668918870588,12.704941642882353
6.300155292,6.518503525586275,5.109072687277019,5.420974085682353,12.759096612823528
6.310111292,6.538350488900001,5.117930737453491,5.4937228039372545,12.814270462313726
6.320066292,6.559142545723529,5.162755171624077,5.556841547839216,12.876812070392157
6.330022292,6.590339436174509,5.252905937439764,5.629302628937255,12.966901221921567
6.339978292,6.628780086664706,5.379968180739764,5.709488822074509,13.079754337156864
6.349933292,6.688309236331372,5.529419160526039,5.775554379211765,13.20598765554902
6.359889292,6.815227661135294,5.699715028441726,5.810012135701961,13.371387681372548
6.369845292,7.0453667314686275,5.897941050598588,5.827044364074509,13.630597468333333
6.379801292,7.331002161311765,6.125095151873098,5.850530817858823,13.972398361960785
6.389756292,7.602831007958823,6.355407391598589,5.88724858052549,14.321962910098039
6.399712292,7.79784312527255,6.5517989932064316,5.93832765517255,14.59876924892157
6.409668292,7.869611529194118,6.705852167422117,6.020089982486275,14.76926852127451
6.419623292,7.806924241154902,6.831678745088784,6.117854327545098,14.837033745196077
6.429579292,7.638996977174509,6.9386885697946665,6.210764061976471,14.829864781470588
6.439535292,7.423142906860784,7.029849000775059,6.302259091172548,14.797485017941176
6.449491292,7.212272590331373,7.1059260917554505,6.400569359819608,14.77545569754902
6.459446292,7.025258546782354,7.160911748618196,6.489138121192156,14.755040197156864
6.469402292,6.851801605370588,7.185989011951529,6.537631396486274,14.702695002450982
6.479358292,6.6672412829784315,7.182320170775059,6.535732404329411,14.597174134019609
6.489314292,6.43370339799804,7.152332530382902,6.470192225113724,14.411291564411764
6.499269292,6.134827853998039,7.095271777049569,6.342073355505883,14.13712951754902
6.509225292,5.808160104252941,7.012091809598587,6.183059907937254,13.816752986568627
6.519181292,5.501348123096078,6.90752690057898,6.024466175800001,13.498946293039214
6.529136292,5.238230573076471,6.783960329206431,5.876682317466667,13.203634468333332
6.539092292,5.0233744274882355,6.65049375667702,5.7330750679960785,12.931810360098039
6.549048292,4.857032102880392,6.52115389685349,5.585167936603922,12.684384771529412
6.559004292,4.741683735762746,6.401074192069176,5.431387724113725,12.461337989137256
6.568959292,4.684435137782353,6.289362380402509,5.276882548662745,12.265479541019609
6.578915292,4.679627488292157,6.194201445049568,5.131810697623529,12.105528517333333
6.588871292,4.7089606074098045,6.12035500950055,5.002937514309804,11.980132429450979
6.598827292,4.756802296574509,6.066992448108391,4.894653867780392,11.882636141078432
6.608782292,4.805697676939215,6.028140887408392,4.808160202878431,11.802957544803922
6.618738292,4.844916121756863,6.003251468746822,4.741472410270588,11.735780455352943
6.628694292,4.877976783521569,5.992990453696823,4.696873976721569,11.68530936537255
6.638649292,4.910424015050981,5.995003913743881,4.678914265309804,11.652324809666668
6.648605292,4.946393334109804,6.007827247483097,4.685280438545099,11.622979278745099
6.658561292,4.983953462717648,6.025795764116432,4.709389127788236,11.59125994892157
6.668517292,5.025106120619608,6.044768075685059,4.748992067162745,11.55432758637255
6.678472292,5.076798625501961,6.063819634241922,4.80521925975098,11.506133632686275
6.688428292,5.149767474238431,6.082609971300744,4.878854370045098,11.443975188176472
6.698384292,5.248391795665882,6.101080385406628,4.972389274986274,11.372056854411765
6.708339292,5.363842890352157,6.115978815724274,5.082924122476471,11.307871983745098
6.718295292,5.481474744254117,6.125820115339961,5.204612247182353,11.26101455527451
6.728251292,5.595100223548236,6.129849970506628,5.3310111639862745,11.23174547219608
6.738207292,5.701886982881568,6.12607546668702,5.45655597457451,11.218505758784312
6.748162292,5.7953631863462745,6.114634552308588,5.577117031280392,11.22409927917647
6.758118292,5.8733656852031375,6.097344037531764,5.690319860084314,11.255764438843137
6.768074292,5.93006248945804,6.077969620955098,5.793399622260784,11.310215848274511
6.778030292,5.962116421203138,6.062807034070588,5.87792091814902,11.367210328156863
6.787985292,5.968086359595294,6.056203119921765,5.938694538745097,11.406062605980392
6.797941292,5.941559170222745,6.060045130418823,5.971740525137255,11.409834396156864
6.807897292,5.887160528065881,6.080267783075686,5.9771821503921565,11.382693957999999
6.817852292,5.807364699634509,6.122764704389411,5.957707941333332,11.340752010117646
6.827808292,5.702421166124706,6.181639332801177,5.90568670827451,11.286166610921569
6.837764292,5.596969864987451,6.242536226467843,5.829245668235294,11.224701409843139
6.847720292,5.5236135866149025,6.306922921879608,5.767391940784314,11.189394774745098
6.857675292,5.496244031320784,6.372512997212941,5.762164575862745,11.20973844945098
6.867631292,5.474630154065883,6.420116945565882,5.823762952019608,11.25716580592157
6.877587292,5.398215529752157,6.4351034281149015,5.933214757509805,11.265059279843138
6.887542292,5.271843028575687,6.4267414051737255,6.085765174392157,11.236610375137255
6.897498292,5.130014433281569,6.41726992478157,6.258649776607842,11.2038172992549
6.907454292,5.021801228379608,6.4257376102717645,6.423060823235294,11.20679786827451
6.917410292,4.9962895742619615,6.450668119879608,6.563518739509805,11.272859772980393
6.927365292,5.051028684850197,6.4787127418403925,6.68681821927451,11.384347849058825
6.937321292,5.154528162556079,6.492757065958039,6.786164568686275,11.499159193568625
6.947277292,5.27258560208549,6.484923356154118,6.835981562019608,11.576262078666666
6.957233292,5.36659598881098,6.461956410271765,6.822066381039215,11.59341055317647
6.967188292,5.41099483745804,6.432144874193333,6.762132191431372,11.556644863764705
6.977144292,5.40638677290902,6.39646319223255,6.687551987705882,11.486785902392155
6.987100292,5.366772093242353,6.350080234389412,6.611812430058824,11.394065227294119
6.997055292,5.31723393190902,6.288910378899215,6.549850104980392,11.294780817882355
7.007011292,5.2804868184972555,6.219783540663921,6.512970913392157,11.209866574156862
7.016967292,5.256125712967844,6.152722993722746,6.492933170333333,11.140958313568628
7.026923292,5.2338631846149015,6.08760840023255,6.47362039027451,11.074619882980391
7.036878292,5.210083223516864,6.024800773977647,6.4498286889019605,11.006718377294119
7.046834292,5.191451380399215,5.966351731154118,6.425018517215686,10.94289278937255
7.056790292,5.176896353614902,5.91369945740902,6.406216439862746,10.888631736803921
7.066746292,5.156752947928627,5.867715669428628,6.396108048588235,10.843759577843135
7.076701292,5.117329047987451,5.8275110400952945,6.393073183156862,10.802252673686274
7.086657292,5.049068056271765,5.7909312258600005,6.38982992754902,10.755916552058824
7.096613292,4.959269499216863,5.7564998850345095,6.3803379016078425,10.708655664039217
7.106568292,4.8580945993933335,5.727724429779608,6.366314123019609,10.678266199098038
7.116524292,4.754700784393333,5.708244350575686,6.347297785352942,10.677359888235294
7.126480292,4.658753249510981,5.69633382452353,6.323142134941176,10.705125471627452
7.136436292,4.578705004805098,5.692970230915686,6.293562469692158,10.744783647156861
7.146391292,4.520622846099216,5.698966584962745,6.258541179186275,10.776518534588234
7.156347292,4.485592750393334,5.712241919939217,6.224347579263726,10.79313952062745
7.166303292,4.468569327256079,5.729174355815687,6.194277756849804,10.79516249492157
7.176258292,4.467680000138432,5.747597808761569,6.166799603851373,10.78142863629412
7.186214292,4.471736270969804,5.7675680451472555,6.142168471614118,10.759685656954902
7.196170292,4.467248544421569,5.781131017271177,6.117328949200393,10.735089619521569
7.206126292,4.462790168601961,5.795818122337843,6.096489931212156,10.714768388617648
7.216081292,4.452502737876471,5.827549196059412,6.082653997300391,10.702305117480392
7.226037292,4.431458264778431,5.872400045875098,6.082548334672941,10.696234503813725
7.235993292,4.400716310660784,5.924430084147647,6.105726605790587,10.699863378205881
7.245948292,4.365017018307843,5.9843584037515685,6.153897023123922,10.71942622604902
7.255904417,4.324533557052941,6.054195529639804,6.227332548457255,10.759896258598042
7.265860417,4.27281170142549,6.141816262573137,6.316931520555294,10.81700009932353
7.275816417,4.209149969033334,6.2594715970496075,6.39986787704549,10.880423106990195
7.285771417,4.145546938092157,6.409034109614313,6.479977758280784,10.96919272220588
7.295727417,4.099348889778432,6.588954081761372,6.586239139555294,11.114931142421568
7.305683417,4.086455114288235,6.779375744933922,6.736447368143529,11.322520509892156
7.315639417,4.1138364098764715,6.955568174326078,6.926223315359216,11.572930179088235
7.325594417,4.199907424288235,7.087355885169216,7.152631908123922,11.847395604950982
7.335550417,4.343602726013725,7.1593414844437255,7.409750169202352,12.126730548264707
7.345506417,4.508650683503922,7.184292539639805,7.667710796182745,12.38856248757843
7.355461417,4.643928196052941,7.187579821345686,7.884721285182746,12.599574001499999
7.365417417,4.698338578445099,7.1840870844829405,8.031483738202352,12.723824913460783
7.375373417,4.6431944277,7.187436002718235,8.110765928790588,12.754340223068628
7.385329417,4.502657264464706,7.186200337031961,8.146336078006275,12.715058882872547
7.395284417,4.321181703660785,7.154090638992745,8.165692884084706,12.633194558754901
7.405240417,4.125964131249019,7.07687180448294,8.197429828006275,12.533235524637258
7.415196417,3.913916850621569,6.9602320052672555,8.237511184280784,12.415027480715684
7.425151417,3.6737838567196075,6.817208835286863,8.260897845653332,12.262790735813724
7.435107417,3.4063957754254903,6.655885485424117,8.256043235065098,12.070907356009805
7.445063417,3.124646382094118,6.485727565992745,8.224664369967059,11.849343653264706
7.455019417,2.8472761176450985,6.314891644698627,8.178768634084706,11.617501616794115
7.464974417,2.5970200572352944,6.146042767757452,8.133773965849413,11.396391296205882
7.474930417,2.3895426850686277,5.980037976502549,8.09486076859451,11.19544995757843
7.484886417,2.2230741522862747,5.820202708659412,8.061465508437648,11.015887720519608
7.494842417,2.089719112576471,5.673631035443726,8.032675377810197,10.859883210519607
7.504797417,1.98262710567451,5.540880620796668,8.003926338202353,10.723659352225491
7.514753417,1.8952323733803922,5.4184323121496085,7.977196628810196,10.604908776421569
7.524709417,1.8270154077725491,5.301519551149608,7.9587585004964705,10.504699694264707
7.534664417,1.7786013793803923,5.189103321914313,7.952826718065098,10.425998207931375
7.544620417,1.7481822832823533,5.081923262835883,7.961640742143529,10.370547373029412
7.554576417,1.7207921824588237,4.983436889837843,7.981922096261176,10.333847101774511
7.564532417,1.689504304756863,4.897923539298628,8.001026486123921,10.3059876925
7.574487417,1.6546620537019612,4.83009693838098,8.012687530986668,10.284213083166668
7.584443417,1.6153085955215687,4.780905115655294,8.01164851514353,10.266334385519608
7.594399417,1.579028158727451,4.749068379314314,7.998613856143528,10.255744737774508
7.604354417,1.5481365158803921,4.731384564761372,7.978259125202354,10.256510741578431
7.614310417,1.522454627527451,4.722946230016274,7.948095380451372,10.263926629166665
7.624266417,1.5051054112921571,4.721968850724117,7.908950312443529,10.272198200029413
7.634222417,1.4996667210960786,4.7279387891162745,7.86463364589451,10.275624628617647
7.644177417,1.5068224289588237,4.737131437612353,7.8216612427513725,10.271670127127452
7.654133417,1.5239955408019608,4.746649879205294,7.7837958665513725,10.261467951715687
7.664089417,1.5472354484490196,4.756770010754314,7.748947745356275,10.249130786460785
7.674044417,1.5761899431549022,4.7729804186837255,7.715279523495686,10.239139678147057
7.684000417,1.6111730777109805,4.795163700071177,7.686002170768628,10.240498945696077
7.693956417,1.652085059624706,4.820399457344314,7.6640771757901955,10.2651398815451
7.703912417,1.7004462567109806,4.857178856534118,7.655210320394117,10.313130294252941
7.713867417,1.7413875893580393,4.902986540145882,7.660954258166666,10.371140117882351
7.723823417,1.7751057074756864,4.943329117910588,7.678071603647059,10.42554318082353
7.733779417,1.8042597871423531,4.979219190008628,7.697266980764706,10.474664255470588
7.743734417,1.8213272363776474,5.024595417890981,7.713371726058824,10.520276369588235
7.753690417,1.826146626161961,5.0877757983027445,7.729931407666666,10.57143262154902
7.763646417,1.8279194102207845,5.173027927361568,7.749432032372549,10.636695417196078
7.773602417,1.828676659044314,5.27318142179294,7.767732212235295,10.712473828431373
7.783557417,1.8481978292796082,5.365982558479215,7.806466370019607,10.80506862219608
7.793513417,1.9069961457894118,5.441730921302745,7.890688288431373,10.927781241803922
7.803469417,2.0099907908482355,5.492745424302746,8.024703719490196,11.084300015333334
7.813425417,2.1358114982796077,5.520399681734117,8.219058380470589,11.287716902784314
7.823380417,2.231500746769804,5.511653164479216,8.47266922909804,11.52486707082353
7.833336417,2.2523250893776474,5.4821703565576465,8.76223472145098,11.77447491807843
7.843292417,2.1757519710639217,5.484145660675295,9.042713228117648,12.003058779843137
7.853247417,2.0330575292011765,5.529988565224314,9.285115033215686,12.192124589450982
7.863203417,1.8831075869658827,5.59700215089098,9.500223594980392,12.361255857686274
7.873159417,1.7564914748090195,5.663915944224313,9.708446475568628,12.532554374745098
7.883115417,1.6697365883972548,5.707460686577254,9.89661106772549,12.689200040627451
7.893070417,1.6113609223972551,5.727413312459608,10.033256324196078,12.79912774592157
7.903026417,1.5495541561227453,5.735983725400783,10.09032294772549,12.840414839843138
7.912982417,1.4715017610313725,5.742432080694902,10.050693592627452,12.805497020823529
7.922937417,1.391802790019608,5.749655295204706,9.932474724196078,12.712362789843137
7.932893417,1.329670230645098,5.7538553845968625,9.767594065784314,12.58435644729412
7.942849417,1.2978833905462743,5.751395793459608,9.584424967803923,12.441588584745098
7.952805417,1.3008712948188237,5.737870977283137,9.403873955039215,12.29892600237255
7.962760417,1.3334799553462744,5.712124517322352,9.230546156803921,12.162755432862747
7.972716417,1.3812805535011767,5.670566819341961,9.059912755411764,12.02778208427451
7.982672417,1.4328732659031373,5.60967873089098,8.890473928725491,11.889396991784313
7.992627417,1.4851116943521572,5.531021710773333,8.726564779564706,11.750656566803922
8.002583417,1.5368746409835297,5.43877236779294,8.568789932868627,11.617219989843138
8.012539417,1.5863100747678431,5.343476419098824,8.41504200627647,11.495827118647057
8.022495417,1.63463311588549,5.253666121755686,8.267316849370587,11.388698766411764
8.032450417,1.6702472911207844,5.173036732600784,8.125532280139215,11.28445787088235
8.042406417,1.680605163571765,5.108699933418431,7.985740625437255,11.169902052549018
8.052362417,1.6672711271384315,5.061486349855687,7.850011111711176,11.046858041509804
8.062317417,1.6346301808109804,5.023576947569412,7.718845636426863,10.938748267745096
8.072273417,1.5828378834541177,4.992823253147844,7.592666850093529,10.86980056627451
8.082229417,1.5230122914109807,4.965600451496863,7.478058121344509,10.837826231823529
8.092185417,1.4702279393952942,4.94281841522255,7.39091580531902,10.832509086490196
8.102140417,1.4362133789247062,4.926804657181177,7.339895432148432,10.837084136215688
8.112096417,1.4315201972580394,4.913473555818431,7.3211403159739215,10.835342514686275
8.122052417,1.4598436512580395,4.896734834759608,7.325807081973922,10.815226328588237
8.132008417,1.5147882169835296,4.876427064975295,7.35116611229549,10.77763661464706
8.141963417,1.5827351558933334,4.8522391287478435,7.392172016550392,10.731891131607844
8.151919417,1.6514657592874513,4.825732484892941,7.439444301571961,10.686878486941175
8.161875417,1.7149484522386274,4.79894407402549,7.487767342711177,10.648377263921569
8.171830417,1.7673835305817647,4.771421894917647,7.535162900789608,10.618738649686275
8.181786417,1.799757385271961,4.742661115033333,7.577953329393529,10.595169944705885
8.191742417,1.8038459418982353,4.71857003622549,7.611994305526862,10.567945506927451
8.201698417,1.777788364209804,4.707892240809803,7.637523570093529,10.543712028462744
8.211653417,1.7253210000588237,4.709785362868628,7.656501751820981,10.529343205717648
8.221609417,1.657136320245098,4.724355065005882,7.671209402389609,10.525394280874512
8.231565417,1.586060593566667,4.761157944790196,7.692529772330785,10.545695270325488
8.241520417,1.5036584203509806,4.824526169888236,7.724155183428824,10.59880124967843
8.251476417,1.3998742406647062,4.9179348666725495,7.759487591664118,10.690693495070589
8.261432083,1.308238327939216,5.059123616084313,7.820584070291568,10.838250752443138
8.271388083,1.2221144822137255,5.212677827868627,7.912313905448432,11.013636694070588
8.281343083,1.154302556664706,5.357858276496078,8.039593344134706,11.205170723286274
8.291299083,1.1189437327705882,5.523141039809804,8.217705311389608,11.44336911642353
8.301255083,1.1033790408882354,5.679248765103922,8.410108148840587,11.684133663090197
8.311210083,1.079141208437255,5.798174986280392,8.557865591585687,11.861937092894118
8.321166083,1.0066155557117649,5.895358186868627,8.618160795311177,11.942616934658822
8.331122083,0.9009177084568629,6.016611920790196,8.603368027664118,11.961698230149018
8.341078083,0.8104440846333335,6.178701324790197,8.520948244134706,11.940259072894117
8.351033083,0.7791151159078433,6.349308310437254,8.401555346291568,11.905662764658823
8.360989083,0.8029214926529413,6.50572715337843,8.291516526291568,11.890405674854902
8.370945083,0.838679486456863,6.627397667692158,8.181436615115098,11.867022757796079
8.380900083,0.8612971586333334,6.708323499064707,8.043312081781764,11.800989550541177
8.390856083,0.8686084253784315,6.759241144554902,7.888577970605294,11.706184048580393
8.400812083,0.8649102334568628,6.784177524358824,7.744932565115098,11.607767994658824
8.410768083,0.8588962689666667,6.781615205731372,7.618656921389608,11.510041103678432
8.420723083,0.8560492482011766,6.756446955143137,7.511453381762157,11.416092223678431
8.430679083,0.8478369140756864,6.717824330084314,7.421317291271961,11.3291658076
8.440635083,0.8233730809992158,6.666648398045098,7.34325022082098,11.246744338874509
8.450590083,0.781301745254902,6.60472422884902,7.270519112997451,11.163770575031373
8.460546083,0.7284674969803921,6.539046101319609,7.198377954840589,11.077636724815688
8.470502083,0.6723078110627452,6.4684047654372545,7.122300863850393,10.984953881286273
8.480458083,0.621953699437255,6.39577051502549,7.042053034183726,10.90326389095294
8.490413083,0.5701731423666668,6.327700303062745,6.9616701911837255,10.853059805600001
8.500369083,0.5128863884352942,6.2647459232568625,6.8792680179719605,10.833850319168628
8.510325083,0.4505336985823531,6.203426379080392,6.7951106711386275,10.83841844867843
8.520280083,0.3693114246941178,6.144945050460785,6.714745438554314,10.854576725403922
8.530236083,0.27335801965490214,6.089859601235294,6.635087558558235,10.876986730031375
8.540192083,0.17702012004705897,6.036913820194116,6.561869228632745,10.911851322580393
8.550148083,0.08779977236078444,5.9834954924156865,6.506681051864117,10.969802867011767
8.560103083,0.007572488205882487,5.925739126801961,6.4677913352176475,11.053807915992156
8.570059083,-0.05984026742745085,5.8712201466549025,6.440245675541177,11.143304364992158
8.580015083,-0.10640813493725478,5.821837544184313,6.422036482933334,11.212345203913724
8.589971083,-0.1328648825450979,5.777112902498039,6.404816409898039,11.261017780580392
8.599926083,-0.14796289783921557,5.733201276007843,6.380323226080392,11.300343400364705
8.609882083,-0.16009648944705868,5.686674499527451,6.3499863120156865,11.33567487877647
8.619838083,-0.17164013136862732,5.646056024896079,6.32176558555294,11.36454614697255
8.629793083,-0.1905273258196077,5.620013122562744,6.298073676658824,11.39119324605098
8.639749083,-0.21399029901568614,5.60651178697451,6.276853099202941,11.41160036622745
8.649705083,-0.2300011219843136,5.604275261386275,6.264470026406864,11.417077296913726
8.659660083,-0.235703968735294,5.613397468131373,6.269263000542156,11.414927233462745
8.669616083,-0.23209676407274496,5.636437790835294,6.294768784520588,11.425165514031374
8.679572083,-0.2175622828080391,5.679985468286275,6.328798020363727,11.454965833247057
8.689528083,-0.18246468041980382,5.750342102084314,6.372316347073529,11.52331147624706
8.699483083,-0.11929604028843126,5.847431380362746,6.437116887763725,11.650505117201961
8.709439083,-0.03746327122745086,5.965051493954902,6.5278693435303925,11.816707587490196
8.719395083,0.04109102133529422,6.095348187641176,6.632548720475491,11.99173890317647
8.729351083,0.09581545658039227,6.23271840707255,6.7349181950049015,12.164084043098038
8.739306083,0.12834780521960795,6.374297521170588,6.817980759632353,12.32861922327451
8.749262083,0.19435759598431382,6.523085174484314,6.887310117906863,12.493391595117647
8.759218083,0.36203244374901977,6.668330194837255,6.959351483593136,12.66603121884314
8.769173083,0.6240376012784314,6.781389205033333,7.021683627906864,12.840970767470589
8.779129083,0.9751016774156863,6.882878157582353,7.082248858299019,13.043466502764705
8.789085083,1.3605442631607845,6.963428299739216,7.1407595377107835,13.249739270215688
8.799041083,1.6763170221529413,6.983392666013725,7.1590244967303915,13.370589404137254
8.808996083,1.843915558054902,6.982814456601961,7.124493363397059,13.389874466294117
8.818952083,1.8617842821921569,7.004495840523529,7.0501303549656855,13.35060529590196
8.828908083,1.8145941792313727,7.047412477190196,6.948180595946078,13.291492359235294
8.838863083,1.7667759706470587,7.087059442680392,6.806164155946078,13.20045328119608
8.848819083,1.7323857208235296,7.107511030915686,6.653687115946078,13.091771362176472
8.858775083,1.7056031801176474,7.098556123268628,6.525295284769609,12.985141224529412
8.868731083,1.6732381306470592,7.054855822092158,6.412934821828431,12.867717668254901
8.878686083,1.6505236010392157,6.99333669287647,6.319138695553922,12.754164405509805
8.888642083,1.6539370908823532,6.930053585033333,6.2513913416323525,12.663973278058823
8.898598083,1.6828857154313728,6.869861108954901,6.206470050063725,12.597890369039215
8.908553083,1.7368558369215688,6.818001304837256,6.178252258691176,12.554085977666666
8.918509083,1.8148172447450983,6.775328279150981,6.166435654965685,12.531232404529412
8.928465083,1.9076418620137257,6.736834797405882,6.1703510422990195,12.521174011588233
8.938421083,2.003750825915686,6.700745140347059,6.1822380877696075,12.51134317001961
8.948376083,2.0917325728176475,6.669630431954903,6.189974940083333,12.492220890803923
8.958332083,2.15972940797451,6.637271252621569,6.193177104671568,12.461140509509804
8.968288083,2.204172282664706,6.596743765268627,6.197506337279412,12.42142545327451
8.978243083,2.231025265129412,6.554866144352941,6.221603286230391,12.388621258666666
8.988199083,2.2425659719882356,6.5270680684,6.265086392055882,12.35963859382353
8.998155083,2.248471338772549,6.517995757896078,6.318730720445882,12.319080500866667
9.008111083,2.2527741557254903,6.5273322249656855,6.370831200471373,12.27039039337451
9.018066083,2.2501824863058824,6.5675515296656855,6.427175795983137,12.207409159147058
9.028022083,2.2509485403470593,6.646713382332353,6.504497357912548,12.149491582774509
9.037978083,2.251098229072549,6.7285520215480386,6.5768087503023525,12.086783129107841
9.047933083,2.250983761229412,6.804288644083334,6.640763989982804,12.025171334500001
9.057889083,2.253481508327451,6.877615571716667,6.691775557935942,11.975459595362745
9.067845083,2.261729063327451,6.947438022248236,6.72423746481045,11.928769267205883
9.077801083,2.2802317632490197,7.016353535238431,6.732675799555548,11.881110362696079
9.087756083,2.3096323890333332,7.085759205406863,6.72912436128104,11.832534248029413
9.097712083,2.3487657167392157,7.153151415518823,6.729385582790843,11.776996823794118
9.107668083,2.3999299085039216,7.222014097197255,6.742552320084961,11.704860030205884
9.117623083,2.4604481777686273,7.287199132451372,6.763582117810451,11.61949446106863
9.127579083,2.5219849173411766,7.341301332239608,6.784673552065353,11.542038691347058
9.137535083,2.581569833392157,7.374805190021962,6.80441778783398,11.489170205817645
9.147491083,2.643764029298039,7.403034721706274,6.825761638368294,11.457307037405881
9.157446083,2.7044730782980393,7.429300689580785,6.851698878066333,11.460765989366667
9.167402083,2.762634483968627,7.44219152999647,6.889185629850647,11.504044222974509
9.177358083,2.8098950286882354,7.4373369193298045,6.946859813419273,11.574329888131372
9.187313083,2.824614419570588,7.40116801529647,7.025323118713392,11.649929853327453
9.197269083,2.797145071792157,7.332554814833726,7.110795378223196,11.702075609386275
9.207225083,2.731525645743137,7.25668611402,7.180086580556529,11.707223944935294
9.217181083,2.635501798945098,7.181527700863137,7.207908137105549,11.662158451837254
9.227136083,2.528125089964706,7.115679339137648,7.208586138948686,11.607337524307843
9.237092083,2.4324769325137257,7.05322098674549,7.226595746595745,11.574715302935294
9.247048083,2.357171765709804,6.973918250608236,7.291642833399667,11.562089950582354
9.257003667,2.2715732980431373,6.874806707059215,7.400745365223196,11.561461658229412
9.266959667,2.1314822659058827,6.757685555686666,7.5272939708114315,11.545009304307841
9.276915667,1.9079705901803925,6.6247208807847064,7.639956746301627,11.476492360386274
9.286871667,1.5939882257627451,6.501697298039608,7.7216046057133925,11.358334778229414
9.296826667,1.249167049719608,6.434601530392549,7.787611461399666,11.250559334896078
9.306782667,0.9924802443862748,6.441877576274901,7.84905721355653,11.210986519013726
9.316738667,0.8975629200725492,6.481266255294509,7.899816365321235,11.241759587249021
9.326693667,0.9671065386607844,6.5179840178435295,7.979045724733001,11.340835262935293
9.336649667,1.1439153335431373,6.5170712101964705,8.108596909831038,11.477693692543138
9.346605667,1.3319184966960784,6.463585375686667,8.262967071987902,11.602191327837255
9.356560667,1.4613229282058826,6.367253346274902,8.397962817478097,11.674468537641177
9.366516667,1.5136053827549023,6.242415888431765,8.480993096301626,11.677279917052942
9.376472667,1.5016801813235297,6.099712641294509,8.504100925713393,11.614053179209805
9.386428667,1.4353592728411768,5.952383719333726,8.478703739438883,11.502813140386275
9.396383667,1.3333478772274512,5.807810830725882,8.425796114340844,11.366446064503922
9.406339667,1.2166288310274511,5.671872926784706,8.369319440615353,11.22901979117059
9.416295667,1.1031324949411765,5.544537721784706,8.321800609438883,11.101617953915687
9.426251667,1.0080038454078433,5.424108743333726,8.290360107870256,10.991262611562746
9.436206667,0.9408581814274511,5.314718574314118,8.277941814183981,10.90731890834706
9.446162667,0.9058955923882355,5.220285537078823,8.284944898262411,10.85532668871961
9.456118667,0.9035445989372551,5.139403731667059,8.316153528987902,10.839409947778432
9.466073667,0.9249647613686275,5.077086262690588,8.364479505183981,10.855630820033333
9.476029667,0.9536756450117648,5.037128179482745,8.414642837046724,10.890235356621568
9.485985667,0.9754362758960785,5.014583884116078,8.447283783380058,10.922478133052943
9.495940667,0.9887615071137257,4.997648513165098,8.467752982162411,10.944780741288234
9.505896667,0.9923980625058825,4.982899771567059,8.478639167752803,10.952923480264706
9.515852667,0.9913091504392157,4.970431581654314,8.478392621625353,10.956711878560784
9.525808667,0.9885942079568629,4.94604699554451,8.452831071250843,10.984834922415686
9.535763667,0.9786090897627454,4.891343105799412,8.384804885380255,11.024741170788237
9.545719667,0.9629739561352944,4.8359054478190195,8.317491922225745,11.07545534149412
9.555675667,0.9477233170568629,4.778378017911177,8.238978720682548,11.14361740929804
9.565630667,0.9378233159784316,4.72320451649353,8.142887367219608,11.217121714945097
9.575586667,0.9309845959980393,4.687085508707059,8.041844545678432,11.289724243043137
9.585542667,0.9238435634882354,4.660112188246274,7.946299115776472,11.366569466611764
9.595498667,0.9164824005274511,4.626311888097451,7.854716034364706,11.447361021592156
9.605453667,0.9070432059000001,4.590040256514902,7.765909531952941,11.530414423592157
9.615409667,0.8981704803509805,4.552805921012941,7.6755004797176465,11.615804498003921
9.625365667,0.8904365631058824,4.515307428935294,7.602261604266666,11.686074076690197
9.635320667,0.8733368280627453,4.477920469637255,7.545277162845099,11.741452364490197
9.645276667,0.8622569276568629,4.44346271314902,7.5005290405647065,11.777796841705884
9.655232667,0.8479337716374511,4.4066627684450985,7.49221691395098,11.798764736431375
9.665188667,0.8168396087523532,4.366264424296078,7.501796992088234,11.814946153058822
9.675143667,0.7649798047150982,4.3359128348607845,7.5133993354803925,11.82030175854902
9.685099667,0.6966835921268628,4.321610224352941,7.510159014931372,11.808183786509804
9.695055667,0.6263621791856865,4.332651968809804,7.503229307696078,11.800274614333333
9.705010667,0.5475319897680394,4.3739748609392155,7.506416796931372,11.817814872431372
9.714966667,0.4433926662484315,4.430099325988235,7.517399839931373,11.873140839941179
9.724922667,0.331630958262157,4.488756758988235,7.5624708202254896,11.977124917039216
9.734878667,0.2381224689876472,4.5472645032627454,7.655770919343136,12.113016259862746
9.744833667,0.19559913200725504,4.618859737811764,7.778938320813726,12.25972515064706
9.754789667,0.20668490255627467,4.7064687304196084,7.92450032904902,12.425532016529411
9.764745667,0.26995920532098056,4.779628358870589,8.103366610029411,12.613682215352942
9.774700667,0.3952515996150982,4.83764594612549,8.33365536904902,12.850166354176471
9.784656667,0.6108268380856865,4.900277467890196,8.621128154539216,13.16150923790196
9.794612667,0.9090948219150983,4.954996032988236,8.94130645787255,13.51884328417647
9.804568667,1.2092207069778433,4.9604347231843136,9.252620841009803,13.845613526529412
9.814523667,1.4142414230954905,4.901172665145099,9.549362586892157,14.108555095156863
9.824479667,1.5025665734876474,4.8118466549490195,9.829277559441177,14.313849865549019
9.834435667,1.4913751403111766,4.716101640047059,10.024891366696078,14.421798197901959
9.844390667,1.4119373907033335,4.6405293816156865,10.103184437676472,14.427883082215686
9.854346667,1.3310849359190198,4.601451820243137,10.079806581598039,14.36825921260784
9.864302667,1.2917079971543137,4.584836372203922,9.9840556965,14.269827884568626
9.874258667,1.292045530526863,4.5739589918117645,9.850462915715687,14.151818068490195
9.884213667,1.31767752264451,4.56498940885098,9.69942993159804,14.025174273588235
9.894169667,1.38022099224451,4.546225487439216,9.53344862087255,13.889626323
9.904125667,1.4815602561523533,4.515008051498039,9.351887943009803,13.752611401784316
9.914080667,1.5962805176660788,4.473758536184314,9.163644103872548,13.62255322852941
9.924036667,1.6919022594582356,4.421385094380392,8.980548382833334,13.492692347117648
9.933992667,1.767034256952353,4.351342513378431,8.795022421355293,13.371800760392157
9.943947667,1.8245470115013727,4.268144935398039,8.598049675355293,13.28611911072549
9.953903667,1.8627323106582354,4.175745903692157,8.39726426957098,13.242304312666665
9.963859667,1.8821272727562746,4.081119151613726,8.199067598139608,13.232460911411765
9.973815667,1.8812995821680392,3.9913176594921564,8.003876441414118,13.247038243098038
9.983770667,1.861587632207255,3.911055154464706,7.814458573198431,13.291591044313726
9.993726667,1.8331849312249022,3.840088025492157,7.635477824414117,13.37486967172549
10.00368267,1.789390707662157,3.7725167759254905,7.465052813296472,13.490944520529412
10.01363867,1.7262044570856865,3.7093657462254903,7.305872066649412,13.638624068960782
10.02359367,1.6409083019347062,3.655574664188235,7.187215872300393,13.782771460196079
10.03354967,1.5529382953366668,3.6170782473039216,7.10007942641804,13.902596435941177
10.04350567,1.4783170005347062,3.5925968037941174,7.039217753614118,13.99522540217647
10.05346067,1.417558055299412,3.5831546741078433,6.996327532535686,14.065479989039215
10.06341667,1.3717356963386278,3.600313110598039,6.979145615457255,14.099848759764706
10.07337267,1.3485339446327453,3.6313749876901964,6.999849620065098,14.089714232725491
10.08332767,1.3576649565935295,3.6592904665666666,7.051181110967058,14.038249115568627
10.09328367,1.4018935709464708,3.689222340566667,7.139547352418039,13.936166516882352
10.10323967,1.4765999828641179,3.729262605817647,7.261100463767058,13.806363523364707
10.11319567,1.5689315078837258,3.77683720334902,7.405121558600392,13.710779307698038
10.12315067,1.6639192739229416,3.8293573988000005,7.563832693561176,13.659496666168629
10.13310667,1.753089725373922,3.8916719327215685,7.710495354051372,13.6666004306
10.14306267,1.836704083726863,3.9646994829176467,7.84473678579647,13.711524097188235
10.15301767,1.8963300908072551,4.055046898603922,7.972180588580784,13.772218352443138
10.16297367,1.932096889842353,4.165147355290196,8.062724654174902,13.848602527247058
10.17292967,1.9476968025980392,4.301293649368628,8.121663854174901,13.923984406129412
10.18288567,1.9436933630882356,4.461736477388236,8.150233854312157,14.001105071031375
10.19284067,1.9384924138137258,4.643443908956863,8.163177526037646,14.094115382619608
10.20279667,1.9636078330980393,4.846324956866667,8.164800621370981,14.20297364769804
10.21275267,2.0617038413921573,5.060233073886274,8.158974501547451,14.324943981207843
10.22270767,2.2804430884313724,5.2739239954549015,8.174254491351371,14.481007364599998
10.23266367,2.6070051756274513,5.48684886292549,8.202322594037646,14.671823931854902
10.24261967,2.990751289058824,5.678594243925491,8.21186745129255,14.860542601462743
10.25257567,3.3567724969215686,5.820842554709804,8.213161818547452,15.02407833440392
10.26253067,3.663120736529412,5.925527801768627,8.24344003109647,15.175096439305882
10.27248667,3.8967877645882356,6.031061284905883,8.28473063737098,15.318926387933333
10.28244267,4.047028279039216,6.140513090396078,8.274366894821961,15.40448158950196
10.29239767,4.101638246294118,6.228803020003921,8.159946010704314,15.372405827541177
10.30235367,4.085369136882353,6.290057992552941,7.929850966586667,15.217024152247056
10.31230967,4.057183631196079,6.345128766278432,7.611979630508236,14.992090906560783
10.32226567,4.052930710411765,6.402620975298039,7.223657738351373,14.726301221658822
10.33222067,4.076578593156863,6.458812946866666,6.78922291501804,14.43851799950196
10.34217667,4.1261226245686276,6.50894105784706,6.355759600704315,14.165923234992158
10.35213267,4.1879528714313725,6.551458524709805,5.949794984998431,13.92323103812941
10.36208767,4.247391033843137,6.579878836082353,5.596532539174902,13.719393411070588
10.37204367,4.301666402921569,6.59111136039608,5.307973776723922,13.559307605776471
10.38199967,4.356525851529412,6.589549901572548,5.080147543900392,13.440697059894116
10.39195467,4.415423960529412,6.580524552239217,4.907635695861177,13.360578074011766
10.40191067,4.458091116078432,6.57064803174902,4.786854508684706,13.313206364109805
10.41186667,4.469124055333333,6.563445362709803,4.715564521684706,13.286662485521568
10.42182267,4.461073150215687,6.55727583937647,4.6784446540298035,13.266638439992159
10.43177767,4.456195058980392,6.5561047452784305,4.66019143532,13.258664812913725
10.44173367,4.446582695058823,6.572582244849019,4.665110617592157,13.253671202423527
10.45168967,4.424584323254902,6.6056311663176475,4.7016610811,13.222001150776471
10.46164467,4.394875514803921,6.648409854637255,4.763112703564314,13.158354876031373
10.47160067,4.358172427490196,6.690889165519609,4.840123147758039,13.074202628247058
10.48155667,4.320624039184314,6.7309587815,4.932343140012352,12.982700703658825
10.49151267,4.292846508737255,6.7699570958529405,5.044835681155491,12.885331368266666
10.50146767,4.266061032954902,6.807150340323529,5.173300889320196,12.782213218090197
10.51142367,4.2411598740078436,6.841886928735295,5.305863459324117,12.681686452207844
10.52137967,4.228324799968627,6.86896004167647,5.4288077952652944,12.589274447247059
10.53133467,4.231987771027451,6.885836711166666,5.513566832049608,12.522322148815688
10.54129067,4.2418378758509805,6.891163868578431,5.570474961579019,12.474318322384313
10.55124667,4.259383741968628,6.8897931895,5.603846741088823,12.440203670541178
10.56120267,4.287757092223529,6.884466032088235,5.610312706794707,12.420180269619609
10.57115767,4.323638359086274,6.876104009245098,5.596934644265294,12.411655343972548
10.58111367,4.358815208439216,6.866579697505883,5.562060107422156,12.421692927913725
10.59106967,4.378850016439216,6.855535017982354,5.512519011010393,12.455620523952941
10.60102467,4.377599675360784,6.840172846135295,5.445443788775099,12.520120558658823
10.61098067,4.358128401376471,6.821177053970589,5.363478941426078,12.593498065431373
10.62093667,4.331131600335294,6.804182981562746,5.2753827266907845,12.618499077784314
10.63089167,4.302121339256863,6.795659529701961,5.185161519122157,12.597271663725488
10.64084767,4.2691810154921574,6.800220633054901,5.0950870652005875,12.548430312980392
10.65080367,4.226672353880392,6.823331397486275,5.018132387390785,12.49681137727451
10.66075967,4.181240359609804,6.863806053545098,4.951717556567255,12.466524605372546
10.67071467,4.136809225211765,6.909472853643138,4.90311274843,12.461305808803923
10.68067067,4.105949868162745,6.963889106231372,4.89679647143,12.498192548647058
10.69062667,4.116560156894314,7.034160622917647,4.942877116822157,12.581589968137255
10.70058267,4.183920081208039,7.113874269231372,5.040788215488824,12.706852879568627
10.71053767,4.3024441972766665,7.191245727270589,5.17479190625353,12.865406566431373
10.72049367,4.446931968708039,7.259621186682353,5.336458659645686,13.051646976235293
10.73044967,4.572183271982549,7.305942508054902,5.50964557443,13.233635819568628
10.74040467,4.649598756100196,7.313365307662745,5.680619444233922,13.371567827411765
10.75036067,4.6588970672766665,7.2954232066823534,5.841672767371177,13.456502029568629
10.76031667,4.593327537472746,7.283929460996078,5.947567264430001,13.484725284862742
10.77027167,4.4692678738649025,7.282893380211765,5.9355598809005885,13.430710411921568
10.78022767,4.31193328815902,7.273518757270588,5.811790789528039,13.288077802313726
10.79018367,4.141511212080588,7.245676655309804,5.63663150560647,13.09491809917647
10.80013967,3.9613593692570594,7.204459425701962,5.473937476586864,12.899697588588234
10.81009467,3.7705209257472547,7.145065289231373,5.351814960900588,12.717138955450983
10.82005067,3.568285593982549,7.064650160407844,5.262961497175097,12.53781215054902
10.83000667,3.36380786643353,6.97278824707451,5.197700150116274,12.36375131054902
10.83996167,3.1714431850609803,6.875050317662745,5.1571374418809794,12.204079214666667
10.84991767,2.9961694334923528,6.775824306290197,5.141258697175099,12.060882021921568
10.85987367,2.8487994204335294,6.680070486094118,5.149095341959411,11.939070432117646
10.86982967,2.732517700100196,6.594228407466667,5.175989415429999,11.842601797019608
10.87978467,2.639810485747255,6.521946365741176,5.218122387684901,11.769940639960787
10.88974067,2.5598121372962748,6.465049976447059,5.270117205077059,11.716240368784314
10.89969667,2.4878588238060786,6.421296843898039,5.327356997841764,11.676480935960784
10.90965167,2.4227178146296082,6.387214776741176,5.3882039952731375,11.646780373784313
10.91960767,2.3631064829041177,6.359827610996079,5.448980550939803,11.622637806117647
10.92956367,2.30950618061,6.339434724094117,5.508632973673137,11.604008878156861
10.93951967,2.2610510611786276,6.3253316985450985,5.566723937598628,11.590549929313724
10.94947467,2.2149645456492157,6.315992296401961,5.620394681647647,11.579865100784314
10.95943067,2.171625258400196,6.312892859360784,5.667719797982941,11.574599465411763
10.96938667,2.1321866830982357,6.318962590231373,5.709221729557843,11.574646311333334
10.97934167,2.0989323065256866,6.337978927905882,5.745132347168039,11.57451715484314
10.98929767,2.0752492028531373,6.364737988029412,5.773118267796078,11.571484501313726
10.99925367,2.0560420854374515,6.391502918305882,5.7883894523823525,11.567747197627453
11.00920867,2.0424673730256866,6.417815847356863,5.789487169666666,11.562009864294117
11.01916467,2.042455632731569,6.4480823196764705,5.784943676733333,11.547751124745098
11.02912067,2.056485281457059,6.4850231478843146,5.785979757498039,11.520781543039215
11.03907667,2.083866577045294,6.529375035299999,5.7960030316549025,11.47961077154902
11.04903167,2.1247814940452945,6.58105286482696,5.8190051984,11.422796187117648
11.05898767,2.1769788314766667,6.6386389962093135,5.858091564929412,11.350412540529412
11.06894367,2.2362790454492156,6.695100994634804,5.911700672458823,11.267740419862744
11.07889867,2.300310597037451,6.745537288283824,5.9796740270274515,11.1801712587451
11.08885467,2.3722110792139217,6.788776783056373,6.060910976282353,11.098654647627452
11.09881067,2.459793656194314,6.8283973328700975,6.15102358615294,11.043909309980394
11.10876667,2.575253556096275,6.869097989540685,6.2548811426568625,11.037765001313725
11.11872167,2.7033900360845102,6.917089367434803,6.371083616029412,11.078572845882352
11.12867767,2.8072329172237254,6.9691370161348045,6.485442863558823,11.14152416092157
11.13863367,2.8627615624590197,7.011915704446569,6.595023812343138,11.205922576666667
11.14858867,2.867261029302157,7.0446769887799014,6.698913654656863,11.267871903196077
11.15854467,2.8450660076158822,7.0787267701328425,6.776493502996079,11.333339814960786
11.16850067,2.8118145661021567,7.1278510861720585,6.825415299015686,11.401453164019609
11.17845567,2.7789476191472553,7.201873626093627,6.846395200486274,11.481283999156863
11.18841167,2.744146459129608,7.281883714819117,6.845500003231372,11.555932174705882
11.19836767,2.696633498141176,7.34294790770147,6.8494447412901955,11.612503114117647
11.20832367,2.6335206243901963,7.386398727701471,6.851132408349019,11.644596094509804
11.21827867,2.554200277782353,7.412738072407352,6.845816991290196,11.646531924313726
11.22823467,2.477908926468628,7.413595113779902,6.832556331682353,11.614575038235294
11.23819067,2.396231716292157,7.3958555327995095,6.810282063054903,11.556045706862747
11.24814567,2.2677577029784315,7.380874920446568,6.7782340014862745,11.473968403529412
11.25810117,2.1135166841352944,7.377220754760295,6.748674881682353,11.398255214705882
11.26805717,1.9782743925666666,7.375750283191667,6.728895425015686,11.348248127254903
11.27801317,1.871734179390196,7.364200771230883,6.710741998741176,11.309347553921567
11.28796817,1.7847562274352942,7.341768008681863,6.697924535211764,11.275298648431372
11.29792417,1.7134662404215686,7.312746007309313,6.702934704819607,11.252839306274511
11.30788017,1.659780820990196,7.274146862995588,6.721366963054902,11.235066078235295
11.31783517,1.6331714495784315,7.230402535740687,6.748513452858823,11.222790797058824
11.32779117,1.6392734662450983,7.18994842534853,6.776264567760784,11.21780684882353
11.33774717,1.6656274863039215,7.146791112603432,6.801500325015686,11.212848945294118
11.34770317,1.6937572255,7.089897658485785,6.831379367564706,11.20218580745098
11.35765817,1.7179715773627453,7.013817632485784,6.870659448937255,11.185797808431374
11.36761417,1.7322741878725492,6.921356964328922,6.916249937113726,11.164256724117648
11.37757017,1.7311500549313728,6.819292737387745,6.962004789466667,11.13738907372549
11.38752517,1.7142939309509806,6.710448491917156,7.005138621623529,11.10623516352941
11.39748117,1.6849314611078434,6.5956137625642155,7.039681495231373,11.068476151882352
11.40743717,1.6516858897352944,6.480473785623039,7.0626102851529415,11.027247040333332
11.41739217,1.6252056615392156,6.3738191045907255,7.076704505486274,10.991411333686274
11.42734817,1.608317251754902,6.282309400010333,7.082994366839216,10.963859821490196
11.43730417,1.5979769897352942,6.207450364296608,7.077948976427451,10.939496688019608
11.44726017,1.5942377067941178,6.151270132859352,7.06241950542745,10.918188388588236
11.45721517,1.5950712675,6.113660108014254,7.037453774878432,10.89833457592157
11.46717117,1.5955379441,6.089337158435824,6.999761567982353,10.872622284921567
11.47712717,1.5916929985280392,6.075113794896607,6.94679230637255,10.848856408913724
11.48708217,1.587639662777059,6.068545101624059,6.8820035059607845,10.846321587070587
11.49703817,1.586820777422157,6.063637659643667,6.808902578941177,10.86373155922745
11.50699417,1.5924825331476473,6.061459835510334,6.735120714996079,10.890632941756863
11.51694917,1.6118833653711766,6.06581254870249,6.671329839390196,10.91589617997255
11.52690517,1.6429628528907845,6.077359125707784,6.619804633672549,10.935128558423528
11.53686117,1.6813154512005883,6.094036210237196,6.583905756358823,10.944210159129414
11.54681717,1.7223037450201963,6.111502829392098,6.566301188770589,10.942900853541177
11.55677217,1.7589510659331375,6.125641075816118,6.565799291299999,10.933490319874512
11.56672817,1.7879554568762746,6.136574222572981,6.578581534025489,10.918729667443138
11.57668417,1.8063730396684314,6.147128744918078,6.5973630658686275,10.903917042305883
11.58663917,1.8098863219958825,6.156981784818079,6.617585718515686,10.89190571867843
11.59659517,1.7955602309076473,6.168096906104352,6.6391614398,10.880250512443137
11.60655117,1.7591301053801962,6.183817156859255,6.663830727986276,10.861682685619607
11.61650717,1.682542311699804,6.205155137231805,6.6864982964235296,10.821206963247059
11.62646217,1.5706866813939218,6.230393829565138,6.70577292052157,10.768387905580392
11.63641817,1.452127344456667,6.261587784937686,6.726600198207843,10.738875141756862
11.64637417,1.3515600047311767,6.312414443310235,6.746875682168627,10.758432419698039
11.65632917,1.2861372285547057,6.383519520722,6.7636760397764695,10.819044771913727
11.66628517,1.2585563479900002,6.45842258254553,6.7885566532274515,10.895358657207844
11.67624117,1.26610242056451,6.524361931584745,6.843052152776471,10.97881029861961
11.68619617,1.30598712695451,6.575203265290628,6.947822516992157,11.072338836462745
11.69615217,1.3934112099741176,6.617133717643569,7.107854434854902,11.194383726266667
11.70610817,1.5275088231309804,6.664520470388666,7.290806337364707,11.353486425482352
11.71606417,1.6690556514505883,6.707610276467098,7.466344245599999,11.520722187835295
11.72601917,1.7637088191760784,6.750506367839647,7.615956654423529,11.669795928815688
11.73597517,1.7559866422152943,6.80862668254553,7.731026189717647,11.788122152933333
11.74593117,1.6507877573525493,6.867947442153373,7.8370703756,11.880735242737254
11.75588617,1.5199715557466669,6.8884283811729805,7.982541396384314,11.983502890384313
11.76584217,1.4145672157880396,6.853653636663177,8.187224579129412,12.119710524894117
11.77579817,1.3497167788488236,6.775712774310236,8.442743225403921,12.289213497247058
11.78575417,1.3347097508213728,6.672274933133765,8.72768304305098,12.47832581842353
11.79570917,1.3604796913645099,6.558446933721999,8.985579098345097,12.643093473717647
11.80566517,1.401729206672353,6.438123617839647,9.159135832266667,12.733919832933331
11.81562117,1.4409271059860789,6.317201547074941,9.235309780698039,12.741266904109802
11.82557617,1.4594180656135296,6.195668981251411,9.22720897932549,12.67423146332549
11.83553217,1.4512614978684315,6.06903232344749,9.164413093443137,12.553189335286275
11.84548817,1.426612755201765,5.936519649643568,9.065507005011764,12.395460958031373
11.85544317,1.3990348097115688,5.807687557408275,8.938474112501961,12.217128925560782
11.86539917,1.363957752829216,5.686859409074941,8.791230307580392,12.026107613227449
11.87535517,1.3220243655154902,5.578657944604353,8.620676153286274,11.821356907698041
11.88531117,1.297956767280196,5.4798692590827836,8.42018131967843,11.613598403992157
11.89526617,1.3107624905939217,5.3990050641004315,8.200015627176471,11.461185268698038
11.90522217,1.3633678031625494,5.34754736504553,7.9798440645490185,11.378875874894117
11.91517817,1.4319575230449022,5.325402239600431,7.769302476274509,11.344000643286275
11.92513317,1.4856400073978433,5.325164498690981,7.567968211843138,11.331274786207846
11.93508917,1.5133236155154903,5.336893050218432,7.378975929196079,11.333493783168628
11.94504517,1.5150699839272552,5.354720683346275,7.208084241470589,11.354128368207844
11.95500117,1.4877268442841178,5.373343721246196,7.0497722764117645,11.397812062364705
11.96495617,1.4376310190880395,5.390240936248158,6.898143472490196,11.474229869599998
11.97491217,1.383575780482157,5.403906635926589,6.759076780817647,11.580961111854904
11.98486817,1.3423086547286278,5.413859468316784,6.644864286917647,11.692956198019608
11.99482317,1.3238587861305884,5.4207568897599225,6.566826567192156,11.770348738215688
12.00477917,1.3258194148639217,5.431707646954039,6.5343793356823525,11.799317379078431
12.01473517,1.3474068764503924,5.448337770316784,6.55579069289804,11.773486384235293
12.02469017,1.3733206355700003,5.471692145818745,6.65005936607451,11.750543670941177
12.03464617,1.4115118048543138,5.481847498242862,6.738883478898039,11.727712393784314
12.04460217,1.4562423166817646,5.484312959525216,6.8465272795058825,11.730070584745098
12.05455817,1.4993057070778433,5.4880845282722746,6.952116529054901,11.74071599682353
12.06451317,1.539856675027647,5.492404955662471,7.060121343643137,11.76504012652941
12.07446917,1.5810474888688235,5.497136293268353,7.17133125789804,11.812377784352941
12.08442517,1.6283197738884314,5.501004719419334,7.292132990564705,11.884313973686274
12.09438017,1.6758356699531372,5.511453579144823,7.42764824397647,11.984305387156864
12.10433617,1.7123831983943139,5.531312282752667,7.57622457202549,12.11136331164706
12.11429217,1.7203988826276468,5.559638671831098,7.733764612890195,12.252437305588236
12.12424717,1.6996567220550982,5.596186200282078,7.886373731184313,12.394883145686276
12.13420317,1.6711542285884315,5.642108351733059,8.021739295870587,12.529746930333333
12.14415917,1.6592143518080393,5.699318793772275,8.144214020145098,12.659958146862744
12.15411517,1.6855683718609804,5.7625050443409025,8.264279049556862,12.788869205960783
12.16407017,1.7483202316452944,5.81991213626247,8.394654990145098,12.919714574784313
12.17402617,1.8044182810374512,5.872056642399725,8.561452251145097,13.072409113607844
12.18398217,1.825982262037451,5.9017155545565885,8.768879727027452,13.24345922145098
12.19393717,1.808536188392549,5.871598771027177,8.97325766204706,13.384247764784314
12.20389317,1.7401871444905885,5.793428972929137,9.086539737733332,13.428227954196078
12.21384917,1.6108296741572548,5.732989950772274,9.06668983930196,13.368108772235296
12.22380417,1.4530724379023532,5.7237855621448235,8.9466042644,13.262783464392156
12.23376017,1.3048277730984317,5.752197068223254,8.80136804930196,13.172910956745097
12.24371617,1.200482994484706,5.775947678615412,8.67051956185098,13.096710695764708
12.25367217,1.1511444181219608,5.777174539007569,8.540894999890197,13.00592617909804
12.26362758,1.1502492208709805,5.784321441556588,8.380833731458823,12.890057940470587
12.27358358,1.171499149064902,5.808541663713451,8.16461277694902,12.727230613215687
12.28353958,1.1915339570629413,5.83212790998796,7.8918212263607845,12.504686612235295
12.29349458,1.1933126112668628,5.843017030772274,7.5813903002823535,12.235163635960784
12.30345058,1.1763537597335294,5.835925894497765,7.270213865576471,11.95260788145098
12.31340658,1.154158738047255,5.812856221066393,6.9947572689098045,11.694215337137255
12.32336158,1.1288407987335296,5.778310412380117,6.769094184596079,11.476174908901962
12.33331758,1.105539254537451,5.73921524063502,6.593650198772549,11.30256983027451
12.34327358,1.0963730217139216,5.693871298556588,6.456212472556863,11.164816829941175
12.35322958,1.104142159811961,5.647344522086,6.35041189767451,11.063054606078431
12.36318458,1.1255975431256864,5.603350713556588,6.271126771949019,10.995607795784315
12.37314058,1.1617605770080395,5.567076146889922,6.20831914577255,10.959532062490196
12.38309658,1.2017802967531372,5.539057940454628,6.162529072596079,10.952342835882352
12.39305158,1.2137730048511766,5.5255918257369805,6.141490469657255,10.958274079941177
12.40300758,1.1803982902825492,5.520743085215412,6.1375339913160785,10.92995102837255
12.41296358,1.104068783011961,5.511391942782079,6.142350446021961,10.871935425294117
12.42291958,1.0021014134907844,5.493323633678157,6.15710799284549,10.805454583784313
12.43287458,0.8978505572025492,5.467729797502275,6.184703548767058,10.748934109058823
12.44283058,0.8064523853790198,5.440691905437568,6.227987069629803,10.701943965960785
12.45278658,0.7388870059476471,5.420102368650901,6.289095288551372,10.652592480509803
12.46274158,0.705729486767255,5.410167146698039,6.370390939257255,10.586701528176471
12.47269758,0.705700136041765,5.409295430029412,6.472687036951372,10.495265925411767
12.48265358,0.7255940605319608,5.418432312139215,6.592558351498431,10.384099024254901
12.49260858,0.7491920470966668,5.436210049027451,6.726741081784706,10.27669494872549
12.50256458,0.7605742600182354,5.458196680533333,6.861683995961177,10.201438854588234
12.51252058,0.755842922422157,5.475258259621569,6.982397676451373,10.171156666078431
12.52247658,0.7277777548356863,5.480899469841177,7.0726658451768625,10.200047151
12.53243158,0.680775496531765,5.472056095027451,7.112800032765098,10.244066111666667
12.54238758,0.6084729093552942,5.474098905803921,7.185569296549413,10.313428082509803
12.55234358,0.5239516134729413,5.492129058960784,7.26118264602,10.386120762431371
12.56229858,0.44117668600235305,5.531579374545097,7.358723925529804,10.483025234647059
12.57225458,0.3695785163356864,5.602455516262745,7.47202067666706,10.605045585078432
12.58221058,0.3033075041003923,5.7076544011058825,7.59200058892196,10.747684545980391
12.59216558,0.23583017685921578,5.841229571282353,7.708561141098432,10.900142285235296
12.60212158,0.1600730088200001,5.980974264811765,7.814288339059217,11.049354117882354
12.61207758,0.08017151776117658,6.10564148857647,7.91275416647098,11.189472464039216
12.62203358,0.019670858957255025,6.207996287733334,8.009637989608237,11.322768393882352
12.63198858,-0.008588023456470466,6.298079546850979,8.120947696274902,11.464798847411764
12.64194458,-0.014364247036862622,6.391652607772549,8.261194287235686,11.633183382117647
12.65190058,-0.011065225034901838,6.487878974635294,8.418523002765099,11.81698895937255
12.66185558,-0.01142330393490184,6.567839167243137,8.564974338059216,11.982082809764707
12.67181158,-0.02767186781921557,6.616916522164707,8.690792110412158,12.110852539960785
12.68176758,-0.0493620569525489,6.638363100203922,8.76434503864745,12.182119042509804
12.69172258,-0.07413700776235282,6.672119374321569,8.766904422176863,12.204297379960785
12.70167858,-0.08704839368392145,6.758630649615686,8.717193091588628,12.212654505647057
12.71163458,-0.07799956376235283,6.878343470262746,8.663950868255293,12.239068660352942
12.72159058,-0.04672342636235282,6.950364290262746,8.66442928511804,12.284822517411763
12.73154558,-0.01073649685647047,6.934057024772549,8.737456835314118,12.322778546235293
12.74150158,0.03565233118274522,6.843110854184314,8.847178667667059,12.33155792545098
12.75145758,0.083414773384706,6.715217985164705,8.941597029627843,12.30666931309804
12.76141258,0.1258500581592158,6.579103976929411,8.986488970412157,12.247047805647057
12.77136858,0.16366553811411774,6.442652435360785,8.973830000608235,12.150872474666667
12.78132458,0.19712243472196092,6.305613879047059,8.907365273549411,12.01732422172549
12.79127958,0.22785558362392166,6.173664739341176,8.802574363941568,11.859071408392156
12.80123558,0.2583539267023531,6.049983700027451,8.677434593353333,11.69068682682353
12.81119158,0.28062232521607855,5.932369456596078,8.546377715784706,11.520940218333335
12.82114758,0.2813179375101962,5.82014107202745,8.414951018921961,11.352184219372548
12.83110258,0.2646966193729413,5.7116607756156865,8.284472350804315,11.18482577090196
12.84105858,0.23660503611803932,5.604694976837254,8.159655438314118,11.022643166705882
12.85101458,0.1879004354945099,5.5047880285176465,8.049851424000392,10.874941370941176
12.86096958,0.12620813706117656,5.413436817850981,7.951676168725882,10.757121227470588
12.87092558,0.053612042584705984,5.3304212144,7.860870881639608,10.682042318509803
12.88088158,-0.03169878792117637,5.259040240145098,7.7771919516984305,10.645157095725493
12.89083658,-0.12666307337215676,5.203379516619608,7.705860873678823,10.641391135725492
12.90079258,-0.2237230009211764,5.160674205133333,7.650458436578431,10.671562358254901
12.91074858,-0.3197174969996078,5.1304693693627454,7.616446811166667,10.721771317294118
12.92070458,-0.40496962604274495,5.119407079399999,7.59829338495098,10.768326899627453
12.93065958,-0.4670552242666665,5.12685922962549,7.587439485147058,10.803118507176471
12.94061558,-0.5010727198215685,5.150099137292156,7.5806301158921565,10.821286930274509
12.95057158,-0.5045390409784313,5.183394604896079,7.571381701009805,10.825467178803919
12.96052658,-0.4809322492019607,5.219070416670588,7.554672330676471,10.828151303117648
12.97048258,-0.4400701635137254,5.251943233768627,7.530595927245099,10.842808687568628
12.98043858,-0.3907580027882352,5.278901878854902,7.503936659590197,10.867814496313724
12.99039358,-0.3436559520235293,5.2953265471196085,7.479795684533333,10.891614168431374
13.00034958,-0.3050391971568626,5.299277155317647,7.458281599772549,10.89516373064706
13.01030558,-0.27653376861764695,5.294692571362745,7.440844331345098,10.876748881437257
13.02026158,-0.2581015104670587,5.292831735107843,7.4269203452470585,10.858892739535294
13.03021658,-0.24003026629254892,5.308349465813726,7.417167097815685,10.849692311594117
13.04017258,-0.2121969694572548,5.353878317490197,7.406738783600001,10.850259279103922
13.05012858,-0.1786872415199999,5.431079541415687,7.393595526894117,10.866275832143138
13.06008358,-0.13251854393317636,5.530038461180391,7.383942071952942,10.902325615711765
13.07003958,-0.06978135952141166,5.6375795342588235,7.379976788403921,10.95705780002549
13.07999558,-0.0033547884037645965,5.74610972692549,7.387379042403922,11.030208852966666
13.08995058,0.05792366475309816,5.849309827180392,7.4169469673450985,11.121003843162745
13.09990658,0.09722722670015699,5.9475672644941175,7.4744509167568625,11.229212796103921
13.10986258,0.12721193200800013,6.0416158071999995,7.565168151658822,11.35830767884902
13.11981858,0.16526515286878443,6.1275664836509804,7.696459835188236,11.513406589437254
13.12977358,0.2183136614472158,6.1910521115725485,7.844857123815687,11.671753390613725
13.13972958,0.27578532497662755,6.2335108769843135,7.955934959894118,11.788562053554903
13.14968558,0.3309089301530982,6.28156389129804,8.011871580286275,11.861856282378433
13.15964058,0.3714569630256472,6.350426572866666,8.049032539109803,11.933081609045098
13.16959658,0.39001542932368644,6.418077069337255,8.108323947737256,12.021470305711764
13.17955258,0.400848783600157,6.455064858749019,8.219084795972549,12.135162434339216
13.18950758,0.4187879494981962,6.452320565611764,8.398987157737256,12.292273197084315
13.19946358,0.45945925543152955,6.40154673855294,8.632381224207844,12.474911523947057
13.20941958,0.5058040573844707,6.304906526454903,8.884228094207842,12.64925789512353
13.21937558,0.5418056622570198,6.170304080709803,9.117269951658823,12.783035403947059
13.22933058,0.5660699103766276,6.016089477611764,9.282394221070588,12.844704463162746
13.23928658,0.5847927407530981,5.860234168690196,9.336276290286275,12.811030701594118
13.24924258,0.5945782739883922,5.700501628396078,9.272053958913727,12.675114087476473
13.25919758,0.5925970997334903,5.535867516219608,9.131663549305884,12.47095317865294
13.26915333,0.5812618479883923,5.367582173239216,8.95446145469804,12.233450282770587
13.27910933,0.5645025814197648,5.192663565396079,8.756132705031373,11.976943532515687
13.28906433,0.5419113248903531,5.0163918889313726,8.553322098992156,11.721704994790196
13.29902033,0.5132180516942746,4.845450304958824,8.360373337913725,11.489319359711764
13.30897633,0.4755434552472158,4.686836027390196,8.179754818394118,11.29248813257451
13.31893233,0.43009678560800013,4.550428511801961,8.009596898894117,11.146685484692156
13.32888733,0.378360254627608,4.4390424931549015,7.854384370894118,11.066872591143138
13.33884333,0.3175191273530982,4.352481321566667,7.716497578541176,11.052682508456865
13.34879933,0.2465784140393727,4.293242744109804,7.595833794305882,11.088493055986277
13.35875433,0.17138477999623541,4.265415317429412,7.490505766247059,11.1559894383
13.36871033,0.09645823760603935,4.269835537307843,7.405180260364706,11.228361200888235
13.37866633,0.03726662131780406,4.297451638737255,7.339780964784313,11.281427379515687
13.38862133,0.0005165728432942553,4.337703229241177,7.292074288980393,11.313129079790194
13.39857733,-0.007845449999843003,4.380766619643137,7.259201471882352,11.326488526692156
13.40853333,0.0141558568629021,4.4202991172647055,7.239105027352942,11.32073489939804
13.41848933,0.057826807366823656,4.453447831209804,7.228585725882353,11.297512794319607
13.42844433,0.11237807330211778,4.474110744807843,7.227746295019608,11.264593302652939
13.43840033,0.16948285272172564,4.4798370721431375,7.2367012026078426,11.227858857358823
13.44835633,0.21983109419819621,4.4706590990117645,7.252858779235294,11.192796621260783
13.45831133,0.2518498050629021,4.450072497305882,7.277739392686275,11.160782486378434
13.46826733,0.2607195955336864,4.421878186501961,7.313271385882353,11.125900369711765
13.47822333,0.2506346848597648,4.391118621931373,7.361703024702549,11.078653447227452
13.48817833,0.2264232680461178,4.369126120286275,7.423606648400589,11.041936613676471
13.49813433,0.19875140023592172,4.368116455180392,7.49733861610647,11.043181608009803
13.50809033,0.18025163540258837,4.399747736405882,7.582805005482941,11.103149457225491
13.51804633,0.16975287944278444,4.468651509088236,7.680730779557451,11.219374424768628
13.52800133,0.1650714380804315,4.5680917808,7.793299632596668,11.368387019258824
13.53795733,0.16272337971768638,4.683780616407843,7.923379130890785,11.541070350768628
13.54791333,0.1635980314569021,4.7931062138392155,8.074599959577059,11.727123803415687
13.55786833,0.17447834690031386,4.8776803410549014,8.24555328393,11.912723437062745
13.56782433,0.18420517867231384,4.936469852329411,8.443523954694706,12.105180354513726
13.57778033,0.18778890275074522,4.975606115035293,8.685121549988823,12.322890473337253
13.58773533,0.184149412280157,4.989521295819608,8.985027304596667,12.578645920003922
13.59769133,0.19223260318211777,4.950625708937255,9.317673797929999,12.845403235886273
13.60764733,0.2131156472409413,4.874152383094118,9.582385092635883,13.037648094905883
13.61760233,0.21113153792525502,4.843742092113725,9.680897881263334,13.100824462356861
13.62755833,0.22064410937231385,4.892179601133333,9.636270096949607,13.096665393337256
13.63751433,0.2245477564017256,5.012696631917647,9.560536409498628,13.110235586278431
13.64747033,0.22492638081349034,5.127281879956863,9.54654198165549,13.163215197454901
13.65742533,0.2244831847938825,5.161061634662745,9.611694731067255,13.2361118402
13.66738133,0.23658742565662755,5.104822701917647,9.72673785047902,13.304641437454901
13.67733733,0.2624600937546668,4.9972199923098035,9.84703181557706,13.358833341180393
13.68729233,0.2897210513625099,4.891046663152941,9.901800276949608,13.366513900396077
13.69724833,0.32841118304878447,4.8041802439176475,9.844225885773136,13.285174839415687
13.70720433,0.38082278080172555,4.729937573505882,9.66568246283196,13.097691359807843
13.71715933,0.4426442224566276,4.660737358447059,9.39005563165549,12.823582757454904
13.72711533,0.5104033167017257,4.5941376180156865,9.069325534596668,12.512811951964707
13.73707133,0.5724096679468237,4.521136483466667,8.757098343812354,12.210046275690196
13.74702733,0.6108180326330982,4.433853283937255,8.48927880685157,11.940890554239216
13.75698233,0.6230602219272158,4.332478799152941,8.276277627459411,11.715177857847058
13.76693833,0.621545724280157,4.224746946333333,8.115142122184901,11.539501457337256
13.77689433,0.6093886521036864,4.122459653862745,7.995050677165293,11.41589840592549
13.78684933,0.5849248190174118,4.036482561803922,7.902771983471177,11.345087695572548
13.79680533,0.5520549369957061,3.9723776333862744,7.829999784616275,11.323311239454902
13.80676133,0.512208386550608,3.931013650241176,7.7700802702456855,11.333016545552942
13.81671633,0.46987289425256873,3.9082815102019612,7.721011720588824,11.362617594847059
13.82667233,0.42979740812707856,3.9004624758686273,7.6801848557750985,11.400222260886274
13.83662833,0.39828059473492167,3.9090886552803923,7.645853307422157,11.431504459435295
13.84658433,0.37771453853884324,3.933760878535294,7.619646041010392,11.450902601964705
13.85653933,0.3727249144996276,3.9626331911999997,7.601023003108432,11.459530963298038
13.86649533,0.39150057620550993,3.983592547166667,7.588076396304509,11.457182539690194
13.87645133,0.4261080214211962,3.9942820828686276,7.579729048833922,11.448969737219608
