Time (s),Linear Acceleration x (m/s^2),Linear Acceleration y (m/s^2),Linear Acceleration z (m/s^2),Absolute acceleration (m/s^2)
0.004976541666,-0.5245152392050588,0.05912671795411764,0.3569015234986274,1.957414883266667
0.01493054167,-0.5245152392050588,0.05912671795411764,0.3569015234986274,1.957414883266667
0.02488454166,-0.5245152392050588,0.05912671795411764,0.3569015234986274,1.957414883266667
0.03483854167,-0.5245152392050588,0.05912671795411764,0.3569015234986274,1.957414883266667
0.04479254167,-0.5245152392050588,0.05912671795411764,0.3569015234986274,1.957414883266667
0.05474654167,-0.5245152392050588,0.05912671795411764,0.3569015234986274,1.957414883266667
0.06470154167,-0.5245152392050588,0.05912671795411764,0.3569015234986274,1.957414883266667
0.07465554167,-0.5245152392050588,0.05912671795411764,0.3569015234986274,1.957414883266667
0.08460954167,-0.5245152392050588,0.05912671795411764,0.3569015234986274,1.957414883266667
0.09456354166,-0.5245152392050588,0.05912671795411764,0.3569015234986274,1.957414883266667
0.1045175417,-0.5245152392050588,0.05912671795411764,0.3569015234986274,1.957414883266667
0.1144715417,-0.5245152392050588,0.05912671795411764,0.3569015234986274,1.957414883266667
0.1244265417,-0.5245152392050588,0.05912671795411764,0.3569015234986274,1.957414883266667
0.1343805417,-0.5245152392050588,0.05912671795411764,0.3569015234986274,1.957414883266667
0.1443345417,-0.5245152392050588,0.05912671795411764,0.3569015234986274,1.957414883266667
0.1542885417,-0.5245152392050588,0.05912671795411764,0.3569015234986274,1.957414883266667
0.1642425417,-0.5245152392050588,0.05912671795411764,0.3569015234986274,1.957414883266667
0.1741965417,-0.5245152392050588,0.05912671795411764,0.3569015234986274,1.957414883266667
0.1841515417,-0.5245152392050588,0.05912671795411764,0.3569015234986274,1.957414883266667
0.1941055417,-0.5245152392050588,0.05912671795411764,0.3569015234986274,1.957414883266667
0.2040595417,-0.5245152392050588,0.05912671795411764,0.3569015234986274,1.957414883266667
0.2140135417,-0.5245152392050588,0.05912671795411764,0.3569015234986274,1.957414883266667
0.2239675417,-0.5245152392050588,0.05912671795411764,0.3569015234986274,1.957414883266667
0.2339215417,-0.5245152392050588,0.05912671795411764,0.3569015234986274,1.957414883266667
0.2438755417,-0.5245152392050588,0.05912671795411764,0.3569015234986274,1.957414883266667
0.2538305417,-0.5245152392050588,0.05912671795411764,0.3569015234986274,1.957414883266667
0.2637845417,-0.5245152392050588,0.05912671795411764,0.3569015234986274,1.957414883266667
0.2737385417,-0.5245152392050588,0.05912671795411764,0.3569015234986274,1.957414883266667
0.2836925417,-0.5245152392050588,0.05912671795411764,0.3569015234986274,1.957414883266667
0.2936465417,-0.5245152392050588,0.05912671795411764,0.3569015234986274,1.957414883266667
0.3036005417,-0.5245152392050588,0.05912671795411764,0.3569015234986274,1.957414883266667
0.3135555417,-0.5245152392050588,0.05912671795411764,0.3569015234986274,1.957414883266667
0.3235095417,-0.5245152392050588,0.05912671795411764,0.3569015234986274,1.957414883266667
0.3334635417,-0.5245152392050588,0.05912671795411764,0.3569015234986274,1.957414883266667
0.3434175417,-0.5245152392050588,0.05912671795411764,0.3569015234986274,1.957414883266667
0.3533715417,-0.5245152392050588,0.05912671795411764,0.3569015234986274,1.957414883266667
0.3633255417,-0.5245152392050588,0.05912671795411764,0.3569015234986274,1.957414883266667
0.3732805417,-0.5245152392050588,0.05912671795411764,0.3569015234986274,1.957414883266667
0.3832345417,-0.5245152392050588,0.05912671795411764,0.3569015234986274,1.957414883266667
0.3931885417,-0.5245152392050588,0.05912671795411764,0.3569015234986274,1.957414883266667
0.4031425417,-0.5245152392050588,0.05912671795411764,0.3569015234986274,1.957414883266667
0.4130965417,-0.5245152392050588,0.05912671795411764,0.3569015234986274,1.957414883266667
0.4230505417,-0.5245152392050588,0.05912671795411764,0.3569015234986274,1.957414883266667
0.4330055417,-0.5245152392050588,0.05912671795411764,0.3569015234986274,1.957414883266667
0.4429595417,-0.5245152392050588,0.05912671795411764,0.3569015234986274,1.957414883266667
0.4529135417,-0.5245152392050588,0.05912671795411764,0.3569015234986274,1.957414883266667
0.4628675417,-0.5245152392050588,0.05912671795411764,0.3569015234986274,1.957414883266667
0.4728215417,-0.5245152392050588,0.05912671795411764,0.3569015234986274,1.957414883266667
0.4827755417,-0.5245152392050588,0.05912671795411764,0.3569015234986274,1.957414883266667
0.4927295417,-0.5245152392050588,0.05912671795411764,0.3569015234986274,1.957414883266667
0.5026845417,-0.5245152392050588,0.05912671795411764,0.3569015234986274,1.957414883266667
0.5126385417,-0.5544139560405883,0.07774518126686274,0.35295969185745096,1.9684929379764706
0.5225925417,-0.5840549941249019,0.09530690939823529,0.34909845433784314,1.9715224713686275
0.5325465417,-0.6153109987660784,0.11721658122764705,0.35844140493,1.9799051678588235
0.5425005417,-0.6386804738425491,0.14078603681196078,0.37604765214764707,1.9885668436431374
0.5524545417,-0.6508266541503922,0.15586759963156863,0.40766618988686276,2.0069862958
0.5624095417,-0.6541062083641177,0.16292832463745094,0.4463372665358824,2.035477923662745
0.5723635417,-0.6561305946778432,0.16321196046098038,0.48274020249666666,2.064328186407843
0.5823175417,-0.6604509418170588,0.14912576571588235,0.5151718529084314,2.094149961407843
0.5922715417,-0.6529639949268627,0.13209428832372547,0.5402100201437254,2.1241493325254903
0.6022255417,-0.6455775398876472,0.10191254331196078,0.5493176317711764,2.1528309054666663
0.6121795417,-0.648453705024902,0.06287201435117647,0.5490685117123529,2.1822709100941178
0.6221345417,-0.6638978754758824,0.027414492900196086,0.5521756131927451,2.207440506898039
0.6320885417,-0.6775321950876471,-0.0013643445703921528,0.5529573056711764,2.2242665073490193
0.6420425417,-0.6769005352837255,-0.023804181139019606,0.5536134951221569,2.2394421637019604
0.6519965417,-0.6689341166954902,-0.03649091933705882,0.5646558472339216,2.256208429407843
0.6619505417,-0.6289645683621569,-0.030570779733137255,0.6008837278878432,2.3030091529960783
0.6719045417,-0.5519711154798038,-0.0008390582272548994,0.6468970156486274,2.386744604447059
0.6818595417,-0.46870605375431373,0.051684444919803924,0.6821538686839216,2.487012806290196
0.6918135417,-0.4050400448719608,0.11288226382960785,0.6960385981858823,2.5741208653098036
0.7017675417,-0.3805260977150981,0.15495721108647062,0.6959862598721568,2.617060718917647
0.7117215417,-0.3953154602652941,0.1834586153590196,0.684448746052549,2.6365362688
0.7216755417,-0.4372183732692157,0.2039896341237255,0.6673693730780392,2.673981695617647
0.7316292083,-0.4813493964535295,0.21041436551000003,0.6477208195290196,2.716544634107843
0.7415832083,-0.5099986894339216,0.2068400715001961,0.6226073665290196,2.7525714476372554
0.7515382083,-0.5147556057280392,0.19562526092568627,0.5962373984701961,2.7707831163039214
0.7614922083,-0.4986271964143137,0.18191644662372547,0.5612977912937255,2.778778569166666
0.7714462083,-0.47508714314568634,0.16609199504921568,0.5091491520015686,2.788635250637255
0.7814002083,-0.46248975269862747,0.1374307955354902,0.4443649433819608,2.7853530828333333
0.7913542083,-0.46144445398196077,0.08561144045921568,0.3770301678329412,2.751269196147059
0.8013082083,-0.4525074663917647,0.0326964891454902,0.312492247362353,2.719628927147059
0.8112632083,-0.42920314764078427,0.0032647871258823513,0.2509761736956863,2.7072315234411763
0.8212172083,-0.3946119370584314,0.0018758613023529352,0.18720467989176476,2.7270790415
0.8311712083,-0.34765700680352934,0.02752475300823529,0.1132181347427451,2.789229500617647
0.8411252083,-0.2966515956133333,0.06744971919254902,0.06450146708843138,2.8479652603607843
0.8510792083,-0.24946304042705883,0.11636117938470587,0.035698289153137275,2.895058547098039
0.8610332083,-0.21027224949176473,0.17042109003764705,0.015659780792352963,2.9281962713529412
0.8709882083,-0.1891224118721569,0.22608175622392157,-0.0034579229507842933,2.9529055042352943
0.8809422083,-0.18264922311333337,0.27806517155137256,-0.022872226709607823,2.9756376629999997
0.8908962083,-0.17727642301529412,0.3235530583337255,-0.04435275303901959,2.9956096808039216
0.9008502083,-0.16619226905450982,0.3606691195709804,-0.07446228206529411,3.0147087413333336
0.9108042083,-0.15486845950549022,0.38418929230235294,-0.1061892140005882,3.0283026279215686
0.9207582083,-0.13544992511333334,0.391140622782549,-0.13245230125941174,3.026191394627451
0.9307132083,-0.09747864552509805,0.3877184538343137,-0.151204445102549,3.004118645607843
0.9406672083,-0.042444227591764715,0.3779044985480392,-0.15971533118098036,2.96765648045098
0.9506212083,0.021228373736078436,0.3592806982188236,-0.16206133728686273,2.9295782946274507
0.9605752083,0.08804804971843137,0.3325146959580392,-0.1571185597790196,2.8967207873529413
0.9705292083,0.15625091323411766,0.297770695332549,-0.14103913807901958,2.8761593532941174
0.9804832083,0.21983210309490198,0.2501879174364706,-0.1233353598705882,2.8740268827058824
0.9904382083,0.28425492513411765,0.19086567320313724,-0.11991453520392152,2.8767503349019603
1.000392208,0.3465785738105882,0.12865545476980392,-0.11268972128235294,2.8922487410392157
1.010346208,0.4014828740027451,0.07218230077372548,-0.08597938222352938,2.922673562137255
1.020300208,0.4513837690811764,0.020904936731568614,-0.04446169754509802,2.963506449764706
1.030254208,0.4961252071988236,-0.0309022996919608,-0.0033334775588235144,3.0132807576470584
1.040208208,0.5421181902262745,-0.08837463393313726,0.034445388519607864,3.0648548525686277
1.050162208,0.5831197377341176,-0.14943211393117647,0.07312388310784317,3.124456057607843
1.060117208,0.613580463712549,-0.20357487733509805,0.09882352522549022,3.1758520543333337
1.070071208,0.633598165730196,-0.24970112527235297,0.1057085872647059,3.2088102350588237
1.080025208,0.6455936483909803,-0.2870209562527451,0.097092141754902,3.226158057039216
1.089979208,0.6479375563733334,-0.3072439700566667,0.07627602536274514,3.226278636078431
1.099933208,0.6351291617027451,-0.31618255703705883,0.056653910421568664,3.217965067901961
1.109887208,0.6111890442360784,-0.3174682852331373,0.047698466852941206,3.207933469352941
1.119842208,0.5913121110770588,-0.30650689986058827,0.04148938594313728,3.192213805470588
1.129796208,0.5781445597770588,-0.29644278693901965,0.028399571082352974,3.1792227124313728
1.139750208,0.5603197814652942,-0.283138170017451,-0.0005619689411764405,3.162008017764706
1.149704208,0.5362350543260784,-0.26337370403705884,-0.04654626711764703,3.138076826980392
1.159658208,0.5079858370201961,-0.24257322035274512,-0.10805171835294114,3.120390860862745
1.169612208,0.46027155982411766,-0.2310009557272549,-0.18872365460784313,3.0939652807254903
1.179566208,0.39291897317705876,-0.23376407466843138,-0.2783132080980392,3.0517585256274513
1.189521208,0.3302657135103921,-0.24923434549196083,-0.3709207675490196,3.0126025378235295
1.199475208,0.29268510819666665,-0.2627571266096078,-0.46305424966666664,2.9993075066274515
1.209429208,0.286117446784902,-0.2501003009429412,-0.5480368278,3.029699914764706
1.219383208,0.29349967119784315,-0.2234644565507843,-0.6023377698509804,3.0780653310392156
1.229337208,0.294899551962549,-0.19473825549196083,-0.611790754145098,3.102278502117647
1.239291208,0.2743020010605882,-0.15898568468803922,-0.5828640451764706,3.126611062803922
1.249246208,0.2344853172762745,-0.11226995714294118,-0.5283423764705882,3.1647221471568625
1.259200208,0.20179270906058824,-0.048133109819411796,-0.4507530693921568,3.2021111959215687
1.269154208,0.2120744989233333,0.03394767289431369,-0.3542435540196079,3.232646269176471
1.279108208,0.27052868959588233,0.11663027168450976,-0.2564087500196079,3.282224613137255
1.289062208,0.36155897982921564,0.18977738023745094,-0.17793833060784311,3.363136860568628
1.299016208,0.4593188534805882,0.24995283641176463,-0.12477438537254902,3.4513217828431375
1.308971208,0.5193825647747059,0.26866661507254896,-0.08087600684117646,3.493554177862745
1.318925208,0.5337115221511765,0.2310262190921568,-0.03325369145294117,3.509333744470588
1.328879208,0.518161734945294,0.14710869981764702,0.030233650586274516,3.5242726407843135
1.338833208,0.47953583089823526,0.03191264693529407,0.12155390539019609,3.5243603599215683
1.348787208,0.4300772260864706,-0.08896011794705888,0.19887528960588233,3.5341798676078433
1.358741208,0.38265739632372553,-0.19775657675098043,0.2611990701352941,3.546178793352941
1.368696208,0.34540251530411764,-0.28612650998627454,0.3110690867588235,3.5510326753725496
1.378650208,0.32442171954333326,-0.3531084920607844,0.34956395870980395,3.544202792901961
1.388604208,0.313657373882549,-0.40091748841274516,0.3753420509607843,3.527983234411765
1.398558208,0.2990525425884314,-0.4340996748186275,0.3919940727196078,3.516836961843137
1.408512208,0.2727932474315686,-0.45645232482450987,0.41146305080588236,3.515814095078431
1.418466208,0.24174882027470584,-0.46470526270882356,0.42753187298235296,3.527076771529412
1.428421208,0.2095995330590196,-0.4577984341264707,0.43324630237450973,3.549721542862745
1.438375208,0.16663060386294118,-0.4406758318931373,0.428854650727451,3.5863354316862748
1.448329208,0.10257757808647057,-0.41486580925784317,0.4149179498058823,3.6407711760980392
1.458283208,0.017971004582156867,-0.38229160144019614,0.3919820457784313,3.70792944882353
1.468237208,-0.07964214983156864,-0.34510568317745105,0.36260418400588235,3.7775919392941177
1.478191208,-0.18217605722960784,-0.30164635602843143,0.3294092225921568,3.835801711823529
1.488145208,-0.27690757763941176,-0.2501051679147059,0.2960975003058824,3.8704782802745097
1.498100208,-0.3554123637766667,-0.2007838006937255,0.26316798527647056,3.876103708019608
1.508054208,-0.4159996416492157,-0.15973494806627453,0.2300021653517647,3.853584294137255
1.518008208,-0.45813662670411764,-0.13153091483098042,0.19598770233607843,3.8188503531960785
1.527962208,-0.4804417938903922,-0.1115670530466667,0.1668978961772549,3.782276902568627
1.537916208,-0.4850266759472549,-0.09106735702705884,0.14234084586352944,3.7507106590588233
1.547870208,-0.4803463352413726,-0.06385389945843141,0.11341402798117646,3.717826664862745
1.557825208,-0.47424759759431373,-0.030099551540784336,0.07659123900078431,3.6783372210784315
1.567779208,-0.46512732845705884,0.007179062292548998,0.03797140000078431,3.638624063235294
1.577733208,-0.4509267002609805,0.04706727700039214,0.0025520373537254947,3.6040038000588237
1.587687208,-0.4318879253394118,0.08492648496117645,-0.024664229175686274,3.5782840841764703
1.597641208,-0.4078865611433334,0.11520304658862743,-0.04140718086196079,3.563899266372549
1.607595208,-0.3730017630021569,0.13386273851019606,-0.048036378489411766,3.5658083298627457
1.617550208,-0.32800861945705884,0.14335451221607842,-0.04185686041098039,3.5820384718235294
1.627504208,-0.27794440363137257,0.14770324700039214,-0.016902655167843134,3.6088759398039216
1.637458208,-0.2263121823901961,0.14815370045137252,0.02933109842235294,3.6442972200196078
1.647412208,-0.1800052038980392,0.14341554109843138,0.09602465225568627,3.6874539184509803
1.657366208,-0.14949022491568628,0.13450288251019607,0.17701069288313726,3.7301062350980394
1.667320208,-0.14588326102156865,0.11632978211999996,0.2699609679615686,3.7576170401960782
1.677274208,-0.17877441085686277,0.0877180833043137,0.3724388682164706,3.7647771587843137
1.687229208,-0.23471092803921567,0.0629389362452941,0.481512983785098,3.7502729856470585
1.697183208,-0.2825135899064706,0.06067474530411763,0.5941874879811765,3.7265212258039218
1.707137208,-0.3071237294947059,0.08028678812764704,0.7023689056870589,3.7153094693921567
1.717091208,-0.2986666377888236,0.10825928308843136,0.7850629581380392,3.719294316490196
1.727045417,-0.24823231613980393,0.13917184981392158,0.8191961712360785,3.746899924019608
1.736999417,-0.15636270968882354,0.17143941128450982,0.7964225589615687,3.7934277282156863
1.746954417,-0.03765890064960784,0.2003772471472549,0.7306307031105883,3.824515478568627
1.756908417,0.07128128501705881,0.2111129185198039,0.6484827117968627,3.815499365862745
1.766862417,0.1213950646052941,0.18645551967666665,0.5654067788164706,3.786022751529412
1.776816417,0.08170794825235292,0.11895205195117647,0.48756334430666665,3.766196175666667
1.786770417,-0.03897549870843138,0.023502653970784326,0.41964719787529414,3.73817205872549
1.796724417,-0.20463539596333333,-0.07747843932137254,0.36686983958117647,3.6895238908235295
1.806679417,-0.3625451413554902,-0.16376175351745098,0.3272006718752941,3.6388365260784314
1.816633417,-0.4650662421986274,-0.20958258762921567,0.2901720121792157,3.623106954666667
1.826587417,-0.485661408357451,-0.2124397435507843,0.22956536971254904,3.631221257647059
1.836541417,-0.48268793868490195,-0.18615771302137252,0.17564363679098036,3.6148878006862746
1.846495417,-0.4728402988496078,-0.13865016357039214,0.14601374281843135,3.5638647508823533
1.856449417,-0.40964675644960785,-0.08909404784490194,0.1154915236047059,3.5369898890784315
1.866403417,-0.3507724720005882,-0.04354911058607842,0.08280208265176471,3.5104876207843136
1.876358417,-0.30379701917705887,0.0011791884864706022,0.03409991550666666,3.484441347372549
1.886312417,-0.277697192484902,0.04488456875705884,-0.020358442767843144,3.4752600090588235
1.896266417,-0.25439708144372547,0.09152122703058825,-0.0668852307129412,3.4947717567647056
1.906220417,-0.22904515950058826,0.13546043861294121,-0.09367932828352943,3.515567194196078
1.916174417,-0.265724869402549,0.15629781706980395,-0.12883772738941177,3.5671023069803924
1.926128417,-0.3221487348143137,0.12025017971882355,-0.11801523344627451,3.6204705216470585
1.936083417,-0.31714262395156867,0.08895047000509806,-0.07947376720901961,3.6089109473137255
1.946037417,-0.24670158387647056,0.10064337644039217,-0.06444590416980392,3.5625182948823535
1.955991417,-0.12075865817058822,0.12346025524235296,-0.041407464618823525,3.538730564019608
1.965945417,0.013646839554901952,0.1192265042247059,-0.0008918178766666643,3.4969725591764704
1.975899417,0.1463570918882353,0.10311994743058826,0.032422274821960785,3.4453218706470587
1.985853417,0.28570226008431376,0.09084790294070591,0.06316305377294118,3.4019807700784317
1.995808417,0.39576208435882354,0.07367977841129414,0.06734897800431372,3.349834411607843
2.005762417,0.44750018605490194,0.057491945319725506,-0.0037930801819607883,3.3647711691568634
2.015716417,0.4734555406647059,0.03811604975109806,-0.045367758002352945,3.3745327690588236
2.025670417,0.4765231390372549,0.01483589947658825,-0.04512323546901961,3.392314992843137
2.035624417,0.44053486812549025,0.003389825790313737,-0.04855837434352942,3.415514996039216
2.045578417,0.3972561626137255,0.0023756549079607973,-0.0602721759847059,3.4138232727647058
2.055533417,0.3523155637568627,0.009819561721686288,-0.08409377985333333,3.3856257798235294
2.065487417,0.3398769080117647,0.014893844255019622,-0.11979237998862746,3.361241631784314
2.075441417,0.33275254581568625,0.03553941111874511,-0.15578200378666668,3.3398253512549023
2.085395417,0.3019936232901961,0.048857522489333345,-0.19113172148862745,3.3004065787392154
2.095349417,0.2484494084,0.06311726487560786,-0.20214474652,3.2600937255254903
2.105303417,0.19768568212156865,0.07714474668737256,-0.22352732625333338,3.2191290009
2.115257417,0.15708050704705884,0.09804120496384315,-0.25895536225921567,3.1797887473509805
2.125212417,0.14017810979215686,0.1298659831736471,-0.28959731754549023,3.1451810116843135
2.135166417,0.1487011718509804,0.16908734014619609,-0.30723487605529415,3.1295313082137257
2.145120417,0.15896234740000004,0.21887022464658823,-0.3116780835062745,3.118506206507843
2.155074417,0.16496065051764708,0.28070461042501965,-0.31271708213372545,3.1110094632725493
2.165028417,0.17590077953725491,0.3330516251112941,-0.32522278021215684,3.1038302616843136
2.174982417,0.1942067722235294,0.36991101651521574,-0.36363153472196075,3.079723309703922
2.184937417,0.22788260694117646,0.39112153906031366,-0.424697641510196,3.0447609651156866
2.194891417,0.2616287802176471,0.3841165517781569,-0.4882481449670588,3.00663099597451
2.204845417,0.27396532752215685,0.3425835955605098,-0.5373991521919608,2.9539396025568623
2.214799417,0.25921506105745096,0.2659563733016863,-0.5705455616547059,2.8769355016411766
2.224753417,0.2282701512143137,0.16681973259384314,-0.5787982358370588,2.7882936226980393
2.234707417,0.19853211815549018,0.05894098854286275,-0.5547635303527452,2.7022017314431377
2.244661417,0.17824638435156862,-0.051216828172823525,-0.5074981072233333,2.619338624521569
2.254616417,0.1715364177437255,-0.15123696023360783,-0.44746851042137253,2.5401782553058823
2.264570417,0.19901771219470588,-0.22521991106890193,-0.38521361810764704,2.482446394266667
2.274524417,0.27333373648882353,-0.26789835976694115,-0.3344190391703922,2.4456215375411765
2.284478417,0.3782667564692157,-0.2882985728708627,-0.30729450227235294,2.404334915364706
2.294432417,0.4904547150182353,-0.29129703652184313,-0.3006025674684314,2.3555276046784313
2.304386417,0.5970146940966666,-0.2777655247100784,-0.3097341756056863,2.314930936835294
2.314341417,0.6753085791927451,-0.24859721681792157,-0.3307436915076471,2.289642445698039
2.324295417,0.7060986180692157,-0.21040889087870587,-0.34838376373509805,2.2721610556392156
2.334249417,0.6743266596986274,-0.1611259662492941,-0.3281055524998039,2.2480947514235297
2.344203417,0.638316008839804,-0.10177899748458821,-0.3054920306762745,2.2329100173254903
2.354157417,0.6048601555613725,-0.04405089342576471,-0.30486207631156864,2.242361695972549
2.364111417,0.5117359888554901,0.0030908840232549083,-0.31012726757039216,2.2331846331882352
2.374066417,0.41205776985549014,0.026151350952666675,-0.33044400021156867,2.2435207649137254
2.384020417,0.3273626396986274,0.022337613461490206,-0.33775352424294114,2.26505940087451
2.393974417,0.2713536170339215,-0.005884706645176461,-0.32726667481549016,2.2810870195803923
2.403928417,0.23287348063980387,-0.05296954826596078,-0.30587283059392156,2.2707822706000003
2.413882417,0.21647588155941175,-0.10172908978164708,-0.28248369568000004,2.2402999398156864
2.423836417,0.29312747867901956,-0.13073908716007843,-0.227620466452549,2.149876478684314
2.433790417,0.42231487530647055,-0.10821977431419608,-0.18515192133686276,2.0653008017039216
2.443745417,0.5058833960711765,-0.09945818026321569,-0.1374284462407843,2.061657061919608
2.453699417,0.5288235135450979,-0.1341619898749804,-0.05719931908392156,2.087361747390196
2.463653417,0.49721274342941174,-0.18106363020635294,-0.004786732458431363,2.0625922833117647
2.473607417,0.4591516116294117,-0.19995633939850982,0.019740514250392166,2.041339264919608
2.483561417,0.42681215233137254,-0.20286600562792156,0.056432351394901964,2.0371834208019606
2.493515417,0.3862020357803921,-0.21160565542235293,0.09357596907137256,2.0333516289
2.503470417,0.3563208147164706,-0.21255180370470592,0.14543588776941177,2.0452965545666664
2.513424417,0.35089325717137254,-0.1995612510615686,0.25613515667137254,2.004278111998039
2.523378417,0.33726895807137247,-0.1641225496309804,0.31692528131843134,1.985771796801961
2.533332417,0.31789302809098036,-0.1152132391370588,0.3194888382419608,1.9740990048607845
2.543286417,0.3089462607380392,-0.0791549392154902,0.30646093507529415,1.9636177399392154
2.553240417,0.28216134673803916,-0.06022050842137255,0.2849134781929412,1.9748238734882353
2.563195417,0.24304376065372546,-0.05858298994686274,0.2678238453694118,2.0082559905862745
2.573149417,0.16827503575176467,-0.06145317027431372,0.2592997156321569,2.0329443327235297
2.583103417,0.08496342559490194,-0.0847693325007843,0.24768511028705886,2.0507164777039213
2.593057417,0.025288198708627425,-0.10583775624588236,0.23446845957725493,2.0871234091803923
2.603011417,-0.006517558852156888,-0.12735047665176472,0.20143308486352943,2.125327668335294
2.612965417,-0.03838917212274512,-0.14357022865960783,0.18725430921058825,2.1623861156666666
2.622919417,-0.08014642065607845,-0.15721303248509802,0.19529167401058822,2.185252236372549
2.632874417,-0.14231027983254904,-0.1692539973027451,0.20105835573254904,2.1842675995294116
2.642828417,-0.22347950455803925,-0.17999198463803923,0.19025011009725493,2.149701506392157
2.652782417,-0.294208927014902,-0.19723614590117644,0.1634070420972549,2.1034114250392157
2.662736417,-0.3461939531835294,-0.2305864856070588,0.1321501976462745,2.056714702156863
2.672690417,-0.38581622277764704,-0.26203415280313724,0.11009073964627453,2.015771971980392
2.682644417,-0.4022931605482353,-0.280820568787451,0.11361282719529413,2.00448601927451
2.692599417,-0.40050903746980393,-0.2889473845188235,0.14898730025803922,2.020115492156863
2.702553417,-0.37499065330901965,-0.2899181598992157,0.20123840628352943,2.0603777268862746
2.712507417,-0.3235543711188235,-0.2919049979188235,0.25050073990058824,2.1296597483235296
2.722461417,-0.2510143296737255,-0.2980202912109804,0.2956153736770588,2.2152468048862746
2.732415292,-0.1758808531639216,-0.3053129958972549,0.34197244333,2.303389235907843
2.742369292,-0.12013080483058827,-0.31134400902862747,0.38979970864960783,2.3715126816137255
2.752323292,-0.08315273788941178,-0.3127292488129412,0.4367225164809804,2.413846876907843
2.762278292,-0.05834843634039218,-0.31387542919725486,0.47842038424764705,2.439681739064706
2.772232292,-0.053763175948235334,-0.3231510966894118,0.5047062068594118,2.4466264762411765
2.782186292,-0.07238085963450984,-0.34430648343254905,0.5117771472952941,2.4336634439862745
2.792140292,-0.10834937613254905,-0.37292629956392154,0.5166883011109804,2.4195035242019607
2.802094292,-0.15679599989137258,-0.4003510250698039,0.5404443545317648,2.411316786221569
2.812048292,-0.2180601101854902,-0.42221003822666664,0.5945313830611765,2.4157455182019607
2.822003292,-0.25253697904627453,-0.42738617696392156,0.6851857661003923,2.4300602260450983
2.831957292,-0.23668815834431373,-0.3909500895894118,0.8018964542376469,2.483622097280392
2.841911292,-0.2048954480894118,-0.3309312528070588,0.9014105914729412,2.555971063809804
2.851865292,-0.19035975150705886,-0.27703362531686276,0.9508374923356863,2.6061930178490194
2.861819292,-0.17576807071490197,-0.24962300190509804,0.9492167244121569,2.6220417578882356
2.871773292,-0.13868114235803924,-0.24063526964823528,0.9172592373356864,2.6223950945156864
2.881728292,-0.08550204594823532,-0.23464053218549016,0.877597659557255,2.621344735947059
2.891682292,-0.031149367503725513,-0.22992830695117647,0.8389441102239216,2.6201583358490197
2.901636292,0.015115235880588215,-0.22769718143509804,0.8039740803062745,2.6148392392607844
2.911590292,0.04637177938450979,-0.2281263326692157,0.7682439840258823,2.615175916770588
2.921544292,0.061741816302156846,-0.22817470404764706,0.7221852055041176,2.6360170563784315
2.931498292,0.07400233833745096,-0.22427495516137258,0.6577496285119607,2.6821455923333333
2.941452292,0.09037594090607841,-0.22229104075098038,0.5658245910413725,2.7194883059019603
2.951407292,0.09916815831784312,-0.2217642180862745,0.45036642237470587,2.7321254607058822
2.961361292,0.08960362690411763,-0.2205868984117647,0.3350983512766667,2.7337504499019607
2.971315292,0.07285833632352938,-0.21005957135078432,0.2549555536492157,2.7414317672745097
2.981269292,0.05520968531960782,-0.19374389060764707,0.2022319553354902,2.7395121932941175
2.991223292,0.030993831509803903,-0.17852999727039218,0.15716777672568627,2.7171990723333335
3.001177292,-0.005195939056862766,-0.16107944076058825,0.11319997398215687,2.6993721274313724
3.011132292,-0.03947942560078433,-0.1454573315154902,0.07034002082568627,2.6925932426862746
3.021086292,-0.057441670810588256,-0.1358338578782353,0.037437681023529415,2.6904168474705883
3.031040292,-0.0628610307909804,-0.13420284013039216,0.02066747959019608,2.689784040078431
3.040994292,-0.05557749820274511,-0.14216038470274509,0.01987515607254902,2.6833199958431373
3.050948292,-0.03508708892823531,-0.15516996945764708,0.024131549284313724,2.6685577172156862
3.060902292,-0.0058715791047059,-0.17155687158509803,0.026635094856862742,2.6502829658039215
3.070857292,0.027050297267843124,-0.19303074812823529,0.027166434782352943,2.635934557117647
3.080811292,0.06617480829725489,-0.21474251464392158,0.026065352482352946,2.6242713522941177
3.090765292,0.11355651650686273,-0.2330041946243137,0.021199958860784313,2.615001452941176
3.100719292,0.16146344226372547,-0.24921368533019606,0.018405775135294115,2.6088334847254897
3.110673292,0.20704969983627453,-0.26269824744784315,0.022478067050980394,2.6010139455490195
3.120627292,0.2519924770696078,-0.269421674094902,0.028572298901960783,2.587120051372549
3.130581292,0.2910150172382353,-0.2695646327811764,0.030400746166666662,2.569594845764706
3.140536292,0.31823347360960785,-0.2679602714596078,0.02557741523686274,2.554154490268627
3.150490292,0.33824131560862747,-0.2637835823890196,0.0128654996172549,2.538721622776471
3.160444292,0.34920725263392155,-0.2589024528772549,-0.005422478493529412,2.522548487858824
3.170398292,0.34376610891039217,-0.25294557326941175,-0.024121447799411763,2.507482886537255
3.180352292,0.32451638707509806,-0.2466222452164706,-0.03773446521509804,2.497844530390196
3.190306292,0.3023282559319608,-0.23871101976333334,-0.05144205846803921,2.479398270152941
3.200261292,0.28058757436137255,-0.23291803417037255,-0.07585789850921569,2.4462891856509805
3.210215292,0.2554182804398039,-0.23532331499194117,-0.11904044330666667,2.405129965768628
3.220169292,0.2157978796554902,-0.2487398315625294,-0.1793443146498039,2.3547256778470587
3.230123292,0.15997524559666668,-0.26350460140370585,-0.247382063112549,2.294386500513726
3.240077292,0.10048066328294118,-0.2715472516174314,-0.31914623638117645,2.2303095247490194
3.250031292,0.05388298643980394,-0.27245194199390194,-0.3877797072047059,2.1780447790627453
3.259985292,0.02102983204764707,-0.26839161251350985,-0.4438540381066667,2.141639863043137
3.269940292,0.003980818753529423,-0.260155522639,-0.49034896159686275,2.12308303292549
3.279894292,0.014423441439803937,-0.24706210486252939,-0.5281175119145098,2.133769908298039
3.289848292,0.05781061853784315,-0.23020032857233336,-0.5505484114249019,2.1746568761411766
3.299802292,0.13292512025156863,-0.2070457100035098,-0.5629068771974509,2.2282111910235294
3.309756292,0.23839351589274507,-0.18714786444076473,-0.5792530637809804,2.2869925226705883
3.319710292,0.36394755591235295,-0.175691540929,-0.6077724890829411,2.334681999945098
3.329665292,0.46952620022607844,-0.18141485293488238,-0.6552285257045097,2.369600302690196
3.339619292,0.5418265517064706,-0.22637918459370587,-0.7322711754535294,2.362698716454902
3.349573292,0.6020973117652941,-0.2958984397878235,-0.8112269144823528,2.3268165029058823
3.359527292,0.6682302036143137,-0.3627223463995882,-0.8563874918980393,2.296394930552941
3.369481292,0.7181602659790196,-0.40473439596429406,-0.8579037967333333,2.27626509492549
3.379435292,0.7323005761260784,-0.4174415764917451,-0.8192190952142548,2.245176328129412
3.389390292,0.720422312947647,-0.40739248288782354,-0.7594762183475883,2.2148796141490195
3.399344292,0.6940208387188235,-0.38203170986037255,-0.700722200231902,2.201843090011765
3.409298292,0.6703582461580392,-0.34615643925017653,-0.6453986174142547,2.203392863384314
3.419252292,0.6608152806541177,-0.30724027255213726,-0.5885269097436666,2.205247041070588
3.429206292,0.6459004895992158,-0.2756481905991961,-0.5322867500887647,2.2015251168941177
3.439160292,0.5955672789149019,-0.2495687030482157,-0.48356817347896075,2.2013160691686275
3.449114292,0.5069282820521569,-0.2125478482456667,-0.4413512306162157,2.20318534132549
3.459069292,0.41684482801294115,-0.15662713000841175,-0.3997652166554313,2.209000991541177
3.469023292,0.34938002070117646,-0.09426672412998041,-0.35042646830445096,2.222819367501961
3.478977292,0.3073901561621568,-0.03804848580076471,-0.2983253920868039,2.244438229992157
3.488931292,0.29000305914254904,0.007233785358058818,-0.2519520677475882,2.2748191084039218
3.498885292,0.29379375172490196,0.032857190095313724,-0.2238456772750392,2.2988388430705884
3.508839292,0.3298742825445098,0.04040423719923529,-0.2101366164805294,2.293615387247059
3.518794292,0.3905977432307843,0.03444170528158823,-0.19870573695543134,2.2844330446980394
3.528748292,0.45963204640725486,0.022434310356098035,-0.18697773575327445,2.2836098721294116
3.538702292,0.5244947395641176,0.013556150342372548,-0.1721345100277843,2.281607999992157
3.548656292,0.5782874840543137,0.010536522063941177,-0.15847289479445095,2.279744836717647
3.558610292,0.6171401683425489,0.015045447634529408,-0.13984587133562743,2.277625681364706
3.568564292,0.6427968563484313,0.02629539883452941,-0.11150980567876467,2.273019169384314
3.578518292,0.6590326136837255,0.045065121581588236,-0.07884619565719607,2.261395787247059
3.588473292,0.6572219602974511,0.06504746515021569,-0.04598757813170587,2.2495346646
3.598427292,0.6337506519505882,0.08277954789531372,-0.0138988984513137,2.239463542109804
3.608381292,0.5933372082329411,0.09876293479727451,0.011407377956529432,2.2356745169529413
3.618335292,0.5450882547584314,0.11265674467962745,0.021016148997705906,2.2413309733254905
3.628289292,0.49466515746627454,0.12292776877766666,0.016219173531039237,2.2574635466588235
3.638243292,0.4461382663564706,0.12668778067962747,0.0003494576290784513,2.2853491778941177
3.648198292,0.39991172720078433,0.12240899463256863,-0.022629022170921543,2.3247803801745097
3.658152292,0.3494159868488235,0.11131697559139214,-0.050430147857196045,2.374905420372549
3.668106292,0.29675878310392156,0.09999231762668627,-0.08654647280523527,2.431360067643137
3.678060292,0.25440038346666666,0.0882051334364902,-0.13205024093072548,2.4848793473568627
3.688014292,0.21538480262156864,0.0683823844619804,-0.1857892139660196,2.539723431366667
3.697968292,0.16889996557450979,0.037813840412764706,-0.24039900365425487,2.6033613329176473
3.707922292,0.11620860720392155,0.010498010696274507,-0.28602571020131373,2.6638627251058824
3.717877292,0.055663371968627445,-0.0017793421527451006,-0.31144840048229405,2.702405583301961
3.727832833,-0.006401646325490205,0.0016601276766666654,-0.310935181192098,2.7142801274
3.737786833,-0.0615712610509804,0.015561424276666664,-0.2896193571705294,2.7070786979882353
3.747740833,-0.11284613714901962,0.02953860856294118,-0.24515610896072546,2.6993097387725493
3.757694833,-0.16527286886666667,0.039132639749215686,-0.18353273886268626,2.6972191874980394
3.767648833,-0.21155183805882358,0.04793564584333334,-0.11905518231366662,2.6931886090862744
3.777603833,-0.2474368311098039,0.06326249362764706,-0.054317760019549,2.686919584086275
3.787557833,-0.27372593559999997,0.0865921159237255,0.013694252098098065,2.6832846357529414
3.797511833,-0.28465281093333333,0.11386269278058823,0.08004560909809806,2.687175482164706
3.807465833,-0.2720973140705882,0.13362903331764706,0.14363831282358827,2.7074363254392155
3.817419833,-0.23763904165882352,0.1449561792235294,0.20507783957456865,2.7488263867333336
3.827373833,-0.2077933625019608,0.1477087731882353,0.24787967670005884,2.784488791654902
3.837328833,-0.19313183614901963,0.1420606265647059,0.26668775032162745,2.8024229217333336
3.847282833,-0.18109105477647058,0.13495286586862745,0.2811980946333922,2.8167697364392157
3.857236833,-0.17945112861960782,0.13663641683725491,0.3070935876622157,2.8224350524
3.867190833,-0.19480082640392155,0.17107152970392156,0.3537303003916275,2.8378744481058824
3.877144833,-0.21027675525882353,0.24332005879803922,0.4145440704445687,2.9025975585176473
3.887098833,-0.22029436562745097,0.32043288658039215,0.4684726638078432,2.99239911972549
3.897052833,-0.2185088667352941,0.38456767018823534,0.5006187407843138,3.0602449527058826
3.907007833,-0.21608911693137256,0.4364823234039216,0.5037218810607844,3.106574955235294
3.916961833,-0.2149581736960784,0.48547969754117654,0.47825444507254905,3.150565548784314
3.926915833,-0.22807431536274506,0.515576313972549,0.4325547629705882,3.1863842098235295
3.936869833,-0.24185011467647058,0.5181629960705882,0.37117235549215694,3.217436741627451
3.946823833,-0.23986151102941175,0.49687083034509805,0.30513814401960787,3.2468872731960783
3.956777833,-0.2383437343627451,0.4464861871000001,0.2417949587647059,3.276366005686275
3.966732833,-0.24150313402941176,0.37531695084509803,0.17914327268627453,3.3052157204509807
3.976686833,-0.24587982081372547,0.299144389727451,0.11323698911960789,3.3276871189607844
3.986640833,-0.2562962915392156,0.2277876642137255,0.0485559265294118,3.3389807148431374
3.996594833,-0.26985374893137254,0.17395912558627458,-0.007978757947058799,3.3321449619803922
4.006548833,-0.2841158187392157,0.14359227606862748,-0.049565505692156835,3.322317453666667
4.016502833,-0.30369140246274506,0.13109387554117652,-0.07003979212941173,3.3118858541647063
4.026456833,-0.33295575374313724,0.13792280430588238,-0.07911686066215684,3.2933162095215684
4.036411833,-0.3716526727823529,0.14824043416274513,-0.09065397033725486,3.2643983988039214
4.046365833,-0.406939851072549,0.15196794241960787,-0.11270201767254899,3.2378218961784317
4.056319833,-0.4336260961705882,0.15813508102352944,-0.1453298622352941,3.2163356358568627
4.066273833,-0.45509633827647056,0.16739282851960788,-0.18622386109411762,3.2046703793235296
4.076227833,-0.47797677975294117,0.18228556066941182,-0.2366432236235294,3.205592284441176
4.086181833,-0.5028967529705882,0.19980843921078434,-0.2925025690352941,3.219074469715686
4.096136833,-0.5223659632215686,0.21835472953823531,-0.3449998313686274,3.2341987330098037
4.106090833,-0.5306190788098039,0.23456136544803927,-0.3844697150686274,3.241381928343137
4.116044833,-0.5217451609078431,0.24746144676568627,-0.410298858672549,3.23505954777451
4.125998833,-0.5007733652607843,0.2549607874696079,-0.4252695364921568,3.221434292284314
4.135952833,-0.46981154436078426,0.25686953650882355,-0.42718171072549016,3.2000272293823526
4.145906833,-0.42820237943921563,0.2528789838029412,-0.4151285513039215,3.173414121205882
4.155860833,-0.3811736710867059,0.24581522627352945,-0.39444536591176466,3.145543202872549
4.165815833,-0.32785471157572543,0.23915562599901966,-0.37047812194705876,3.1135847208529412
4.175769833,-0.26883189638356864,0.23406531521470592,-0.34188877009411767,3.0747122184803923
4.185723833,-0.21092211587964704,0.23221522178333337,-0.3066505679588235,3.031183007009804
4.195677833,-0.1560425688992549,0.24325031647156867,-0.26198167116078425,2.972773165754902
4.205631833,-0.10789261681101958,0.2654223734950981,-0.21023951654117645,2.9083850064568626
4.215585833,-0.06284583939337254,0.2886544160794118,-0.16542697171568627,2.8477397002039218
4.225540833,-0.019559991111607836,0.30681736983235297,-0.13977945008117643,2.7951860088254903
4.235494833,0.01449626802760785,0.3148356910519608,-0.130827506948098,2.760616979219608
4.245448833,0.039070372713882355,0.31293148221666667,-0.1327353229990784,2.741633360972549
4.255402833,0.05824996234858824,0.30778728532843147,-0.15220589831868625,2.7212349899215686
4.265356833,0.06834589101133333,0.2988281585754902,-0.18659175699319602,2.6951554709137255
4.275310833,0.06531498104466667,0.28171082455980395,-0.2250484930598627,2.673503988815686
4.285265833,0.05435791802976472,0.2546700662166667,-0.26553048391672546,2.6462937423999997
4.295219833,0.03182499606505883,0.2196174415147059,-0.31095307391750976,2.6043798762196078
4.305173833,-0.011315382670235286,0.18536249167745103,-0.35917687002339216,2.5459816751607844
4.315127833,-0.0842131819937647,0.1639689512794118,-0.4138859434273137,2.467030120847059
4.325081833,-0.1835905216212157,0.1597793639401961,-0.4819871786037842,2.3685746277490196
4.335035833,-0.27376920503298036,0.1733439297186275,-0.5532387115645686,2.286400823337255
4.344989833,-0.3389343482878824,0.20193768560882355,-0.6185753502312352,2.235915658082353
4.354944833,-0.3900789461310196,0.2328796603754902,-0.6781936269508431,2.201265418062745
4.364898833,-0.41447953756239214,0.2496747325421569,-0.733926726970451,2.186006962827451
4.374852833,-0.4055206057192549,0.2336198720127451,-0.7869009372175099,2.1717675925529414
4.384806833,-0.37547253264866665,0.18854794011078435,-0.8260744272724118,2.1342276712588237
4.394760833,-0.32601635845062743,0.14192191001274515,-0.835299017605745,2.1067238516901963
4.404714833,-0.2758655808878824,0.09729247475784315,-0.818702509997902,2.0895464794745098
4.414669833,-0.23298895743690196,0.04415049097352943,-0.798470475997902,2.0493746917490197
4.424623833,-0.2131169428133726,-0.016429105242156843,-0.7875964649410392,1.9848009503960782
4.434577833,-0.21114992798984317,-0.05807237892843135,-0.777936416097902,1.9494775452
4.444531833,-0.2184734967937647,-0.0701299911245098,-0.7489510916665294,1.9326118817686275
4.454485833,-0.2371632044212157,-0.05969690741862743,-0.6991872822743725,1.916424373180392
4.464439833,-0.25673569255847056,-0.023489320055882335,-0.6427129473528039,1.898752431964706
4.474393833,-0.28250440634278434,0.029832219100980415,-0.5841803781959412,1.887208821670588
4.484348833,-0.31565625026435296,0.09144903114019609,-0.525987030678294,1.889064712945098
4.494302833,-0.353755664127098,0.15556164118333335,-0.4789398778018235,1.9109625614156862
4.504256833,-0.39588531151925493,0.21389772955588238,-0.4578226785449608,1.9560753830627449
4.514210833,-0.4300392535780785,0.2741944810539216,-0.45987164036849015,2.0139891372196077
4.524164833,-0.45681248461533336,0.33905680733823534,-0.47756874013907846,2.082728504956863
4.534118833,-0.4676587371604314,0.4020302880617647,-0.4938380645004509,2.1474794534039217
4.544073833,-0.449675258536902,0.4650744054264706,-0.4839045135900588,2.2088944749058825
4.554027833,-0.40502825869768627,0.5184950376911766,-0.43709916027241175,2.2772935148058826
4.563981833,-0.3421911786192549,0.5566979702088236,-0.36007145245476463,2.360676388617647
4.573935833,-0.27220872076239216,0.5797769991794118,-0.27166042820378433,2.4379028728568626
4.583889833,-0.18879008362513727,0.5816880526966667,-0.1873308493410392,2.493734240288235
4.593843833,-0.1026684506839608,0.56777086542,-0.11173470616456861,2.5245330303666664
4.603798833,-0.03893480901729413,0.5475513427396079,-0.045589798850843105,2.5300812860529414
4.613752833,-0.006283612866313742,0.5323665823003922,0.013869181364843162,2.527190543445098
4.623706833,0.001713979406235278,0.5255973524533333,0.06898515075700003,2.5308242418568625
4.633660833,-0.012488311240823547,0.5259594900101962,0.11977386812954904,2.542439281484314
4.643614833,-0.05133256865062747,0.5285674628337255,0.15570430894131373,2.569558172033333
4.653568833,-0.11157346204278433,0.535376144182745,0.16884838969033336,2.6078315568960786
4.663522833,-0.1838755218266667,0.5468030596415686,0.16315727033150984,2.65255380087647
4.673477833,-0.26297268823960784,0.5605454724866666,0.1478462673471961,2.7019942724254897
4.683431833,-0.34572582051019607,0.5706226441886275,0.13177701090601965,2.755294381503922
4.693385833,-0.4281336116415686,0.5768568537945098,0.1119385776334706,2.812029355405882
4.703339833,-0.5035477774258823,0.5758606143631373,0.08285386344327453,2.8774544372686273
4.713293833,-0.5673125125337255,0.56883148152,0.040940505706019634,2.9446006599000003
4.723247833,-0.6236403001670588,0.5566345680180392,-0.0042926402371176245,3.0106258279960785
4.733201958,-0.6732929866645099,0.5424846959533334,-0.04197819734221566,3.073203898335294
4.743155958,-0.7140177888821568,0.5333919201945099,-0.07599224116745096,3.124262145156863
4.753109958,-0.7512161582743138,0.5298522451415686,-0.10407381393019605,3.162541210835294
4.763063958,-0.784919899105098,0.5292808345905883,-0.1189734588360784,3.1874551331019605
4.773017958,-0.8127458697168628,0.5358083909807844,-0.11977719588901958,3.2035196988941177
4.782971958,-0.8351410381462745,0.5460189938690196,-0.10603862098509802,3.2174015617568625
4.792925958,-0.8599030448254903,0.5481928281376471,-0.0796186105007843,3.2403136610156866
4.802880958,-0.8798996280764706,0.5439805742376471,-0.0442224074215686,3.2648839298627452
4.812834958,-0.8854184251156864,0.5359182269219608,-0.001898509237254873,3.2893318211960785
4.822788958,-0.8732856475372548,0.5244129931729412,0.044487680401960814,3.314310620980392
4.832742958,-0.8552031445960784,0.5096579457533333,0.09588930206862747,3.333706379411765
4.842696958,-0.8388898027333334,0.4894277834337255,0.15283464740196082,3.34293070227451
4.852650958,-0.8175500108509804,0.46513739482196076,0.2139994238137255,3.349940952333333
4.862605958,-0.7876480608509804,0.4364053809435295,0.27386709144705884,3.363781795098039
4.872559958,-0.7499868785960784,0.40317990795725495,0.32479953425294117,3.391310768509804
4.882513958,-0.7087540909098039,0.3668073373827451,0.3605239323627451,3.4272069707254897
4.892467958,-0.6703634971647059,0.31699533144549025,0.3774825660647059,3.4560415847647055
4.902421958,-0.6435490719294117,0.2608085878258824,0.36944321492745097,3.459779957529412
4.912375958,-0.6283105514980392,0.21280078041019612,0.3508568224568628,3.4460470456862744
4.922329958,-0.619269632517647,0.18694642212784315,0.35850034002549014,3.4466379059019605
4.932284958,-0.5998198097901961,0.18982140632392158,0.42100271715882354,3.4875525908235296
4.942238958,-0.5604170401,0.21792803183372547,0.5417730683352942,3.556188628882353
4.952192958,-0.5057599624941177,0.25667365475529413,0.6860804244921568,3.634200926549019
4.962146958,-0.43826849875098034,0.29596376808862745,0.8039978948058824,3.676384970352941
4.972100958,-0.36500928416666667,0.3388944610886274,0.878324937080392,3.6745159456862746
4.982054958,-0.2997037045392157,0.38101578479450987,0.9228606076490197,3.65700985254902
4.992009958,-0.2512225019705882,0.4083974472847059,0.9496243885450981,3.6354741189607847
5.001963958,-0.21255533493137252,0.41672052308862745,0.958516550347059,3.609230542235294
5.011917958,-0.18559164518627447,0.41264552971607843,0.9535093373843138,3.5876710976470587
5.021871958,-0.17956978122549017,0.3953362350690196,0.9391743694235294,3.5774143599607844
5.031825958,-0.20341981716666663,0.36785237242196084,0.9141043491882354,3.584320114313725
5.041779958,-0.2528523617333333,0.3329835222650981,0.8710118373607842,3.604581815372549
5.051733958,-0.32281138486666666,0.29934095936313726,0.7949036529411765,3.6292489935294117
5.061688958,-0.4131433226509803,0.2795001069709804,0.6843431608235294,3.643071361470588
5.071642958,-0.5173937891215686,0.2719617848337255,0.5538608008235295,3.630848374529412
5.081596958,-0.6208235587490196,0.27296463964941176,0.4298007244117647,3.604626210901961
5.091550958,-0.7218316524352941,0.2921776501352941,0.3318844979411764,3.5746374288039213
5.101504958,-0.8168028169647058,0.3252119077117647,0.2586166386470588,3.553059950705882
5.111458958,-0.8895631264745097,0.36723199431960785,0.19546382039215687,3.556908188705882
5.121413958,-0.9334512494490196,0.4122990306137255,0.1354493317647059,3.573847386980392
5.131367958,-0.9503351992901962,0.45769674416274514,0.08402534019607845,3.5798464539215686
5.141321958,-0.9403482696039216,0.5049465460588236,0.04409731282549021,3.5715389935686273
5.151275958,-0.9045501707803921,0.5521975747254902,0.015449096141176486,3.547853538745098
5.161229958,-0.8429287956323529,0.5906399220627452,0.0027289829549019774,3.503953139745098
5.171183958,-0.760792773912745,0.6170262508588236,0.009587572007843154,3.441914216901961
5.181138958,-0.6705533253284313,0.6322596119843137,0.029128589809607853,3.3733550439431372
5.191092958,-0.5788359184617647,0.6394058955137254,0.050327608541960805,3.3085492506137255
5.201046958,-0.4869096169480392,0.6397253942549019,0.0709282994654902,3.250747578201961
5.211000958,-0.3966483846205882,0.6341761114294119,0.09562686886549021,3.198326186162745
5.220954958,-0.31020532678921564,0.6274593116215686,0.12904682484392158,3.1491397631039213
5.230908958,-0.2352529419990196,0.625652567845098,0.17195217130666668,3.099820274652941
5.240862958,-0.17211512013627447,0.6269459719470588,0.21107081432705885,3.0532824444764706
5.250817958,-0.11409892032450979,0.6270526205745098,0.24238015546235295,3.01410494557451
5.260771958,-0.06095800280490194,0.6290420038509804,0.26969086026235295,2.981129732560784
5.270725958,-0.018423957406862725,0.6354170167039215,0.2877352760447059,2.956367459792157
5.280679958,0.01619772749117649,0.6461423350733333,0.29636090226627454,2.9369581757666663
5.290633958,0.04102841028725492,0.661296265785098,0.2985763291545098,2.9227156304921564
5.300587958,0.05768133778725492,0.6804231846262744,0.29592392035058823,2.9092504219823527
5.310541958,0.06867365607411767,0.6970403065337255,0.28842889913490194,2.8955801467470588
5.320496958,0.07062535347215688,0.703419893974902,0.26989690869764704,2.8776035954921566
5.330450958,0.06500612190352943,0.6971263752513726,0.24527954608,2.8637516647078436
5.340404958,0.056986275825098055,0.683339340110196,0.2176075408562745,2.854034276041176
5.350358958,0.04211719623686277,0.6717861362631373,0.19710966778372552,2.839222305609804
5.360312958,0.011469898197647077,0.6619976908905884,0.18447616217392157,2.8111437800411765
5.370266958,-0.0378612831552941,0.6559735339062746,0.1696522566229412,2.7643472315705884
5.380221958,-0.10599308580627449,0.6578426135866667,0.143904539797451,2.697243823335294
5.390175958,-0.19198409654549017,0.6608299445984314,0.10459882385235296,2.622199644156863
5.400129958,-0.28500171779843136,0.6681721671768628,0.05558792085235295,2.5488235945
5.410083958,-0.3693238643945098,0.6764980978003922,0.003616025111176483,2.484241023098039
5.420037958,-0.43209845952588233,0.6806180459494119,-0.044663600451568614,2.4378148352137257
5.429991958,-0.47647373580431374,0.6719002028317647,-0.09616624567313725,2.412037228527451
5.439946958,-0.5123485363513726,0.6396836382494119,-0.17173528240843136,2.3734778449784315
5.449900958,-0.5460775004729411,0.5872548886531372,-0.2911986791398039,2.2918684268411766
5.459854958,-0.583556971902353,0.5329694990492156,-0.42976314084764705,2.1916255570764704
5.469808958,-0.6255592187827451,0.49246322218647065,-0.5349446460045097,2.1230909197039214
5.479762958,-0.6553315096415686,0.46074822257862746,-0.5919547234515686,2.0898858316254905
5.489716958,-0.653465044010196,0.4312115630296079,-0.6264358229456862,2.061448297390196
5.499670958,-0.6171762032670588,0.4153943058139216,-0.6545800741241177,2.036901576429412
5.509625958,-0.5632653908827451,0.42743640569627456,-0.681310356782941,2.0362351821941176
5.519579958,-0.5052831507670588,0.4560087447158824,-0.6860012439790195,2.045199609703922
5.529533958,-0.44682270013372544,0.47626923230411766,-0.6474071893521568,2.0339960555274508
5.539487958,-0.37783965754156856,0.4939812052256863,-0.57078888696,2.0108222594490193
5.549441958,-0.31300425138725485,0.5198256461864705,-0.4784657888031372,1.987508734017647
5.559395958,-0.27159476314215686,0.5538559482845099,-0.3883748480384314,1.9676948416450977
5.569350958,-0.23598484146372548,0.5924197801080392,-0.3046512628443137,1.9503820359784312
5.579304958,-0.20773348017941173,0.6274913910492157,-0.24225796492823526,1.9320169347039216
5.589258958,-0.1864135802970588,0.6574220726570588,-0.21809430037921568,1.922884071135294
5.599212958,-0.1696209043362745,0.6634004952452941,-0.21802134490862743,1.9163029187039213
5.609166958,-0.15976184523823528,0.6453914723119609,-0.21982871639882354,1.906080726880392
5.619120958,-0.1477019858852941,0.6149460637394117,-0.20860249803019607,1.8864556280764706
5.629074958,-0.12574553059117646,0.5823366579688236,-0.1905251902282353,1.8550361421745099
5.639029958,-0.10399482851274511,0.5434583376452942,-0.1682060155282353,1.8269967233509805
5.648983958,-0.08928391036764706,0.5041885978335294,-0.1382713469086274,1.8099159034686274
5.658937958,-0.09431440758333334,0.4697105595276471,-0.09939978099686274,1.8113433951352942
5.668891958,-0.10988271097843136,0.4536652609080392,-0.05190902509882351,1.8307581121745096
5.678845958,-0.13164934959411764,0.4545879171413726,-0.0025648222047058725,1.8644375310960783
5.688799958,-0.16398458973529412,0.4658080475354902,0.030124422424901973,1.888413973388235
5.698754958,-0.18569970406274508,0.49053051098843137,0.04203807988862747,1.8890319482058822
5.708708958,-0.1878716465843137,0.514480282092353,0.04555494076862746,1.8812848654215686
5.718662958,-0.18344647377450982,0.5292022296943137,0.04697456518882354,1.8771348538921566
5.728616958,-0.18347134163921566,0.5379505471276471,0.04336484393196079,1.872091401127451
5.738570583,-0.1880533918019608,0.5430221124256863,0.03438414840450982,1.8661133560392158
5.748524583,-0.20825771171960783,0.5456390395237255,0.026119697384117655,1.8638605205352943
5.758478583,-0.23780628353137254,0.5455200658825491,0.017440422240980403,1.8697289383392155
5.768433583,-0.24716381204313728,0.5410676748609804,-0.002332762976666655,1.8760430584705883
5.778387583,-0.23528424184117647,0.529146119355098,-0.029705451129607832,1.8944570144352941
5.788341583,-0.2214761337980392,0.5055035449170588,-0.05124504580019607,1.9083670075588237
5.798295583,-0.2168061002382353,0.47760829053274506,-0.06964648569235292,1.909653718029412
5.808249583,-0.21776442448725486,0.4526068804935294,-0.08283607297862744,1.9089504285784313
5.818203583,-0.24656144563686275,0.4346219343331373,-0.09408612736294115,1.9207418731862744
5.828158583,-0.28250152861333333,0.4163382642409804,-0.09730499665117645,1.9389307366176471
5.838112583,-0.29857315116627453,0.3974407855547058,-0.08686393895117646,1.9511705725784314
5.848066583,-0.31141074751921566,0.3792930574958823,-0.0656087312372549,1.9627627444607842
5.858020583,-0.33037255704470586,0.3618777103978432,-0.045093775125490176,1.9713062546960785
5.867974583,-0.35482733266431377,0.34497940620176476,-0.031111614966666645,1.9774184461470588
5.877928583,-0.3771655767466667,0.32845472763313727,-0.01299099048039214,1.9874571903431373
5.887882583,-0.3977950465682352,0.3079591705076471,0.020348096205882366,2.0080771328333333
5.897837583,-0.39289057405647054,0.29011046446254907,0.07239799207254903,2.0342180860313728
5.907791583,-0.36062302403882357,0.27858694383117644,0.12083922148431374,2.057503638747059
5.917745583,-0.33046901316823524,0.26543664755078433,0.1609505533431373,2.0740210845803926
5.927699583,-0.29683282488,0.24862108719588236,0.20614255953333338,2.100636844660784
5.937653583,-0.2605321521309804,0.23485973394882353,0.25603633189215685,2.124009737190196
5.947607583,-0.23087915592313724,0.22091780492333335,0.30885201237254906,2.1374489054058827
5.957562583,-0.1947465848898039,0.21045045195098042,0.3816798400254902,2.160792483209804
5.967516583,-0.15518297089568628,0.20201382550862745,0.4455830165568628,2.1712265891509803
5.977470583,-0.10227382093882352,0.17751923148509804,0.4954963040078431,2.168817365680392
5.987424583,-0.060560759019215676,0.12996849289294118,0.544032951945098,2.161598707778431
5.997378583,-0.030799073393725472,0.06659932765764708,0.5986689681254902,2.1592242792490195
6.007332583,-0.013310888332941159,-0.004937182538431351,0.6605478042039217,2.1530692357784313
6.017286583,-0.003925923768235276,-0.09223247779333332,0.7336722920666666,2.1264449496019604
6.027241583,-0.007609119303529396,-0.2055052209305882,0.8084742773019608,2.1010434442686274
6.037195583,-0.029078088781960765,-0.31665191647960783,0.8517788932829413,2.0968445504254904
6.047149583,-0.05794040384470587,-0.4263434693619608,0.8619281376554904,2.098487490562745
6.057103583,-0.0908602623715686,-0.5502340567737254,0.8574387973809804,2.1050155719156867
6.067057583,-0.10435106151862743,-0.6900590749894118,0.8603761633613725,2.1157001529941177
6.077011583,-0.10217611513235292,-0.8344655013227451,0.8615082745986274,2.121442312994118
6.086965583,-0.08102180611274508,-0.9639785420090196,0.8610542569339216,2.1250103245431373
6.096920583,-0.0371490693480392,-1.0661854409894118,0.885450399892745,2.1210655171313726
6.106874583,0.01359156616176472,-1.1380765676168627,0.9312492524888235,2.124938064190196
6.116828583,0.08523051727941179,-1.1841790770168625,0.9819028533378432,2.1481028250333334
6.126782583,0.1638220600637255,-1.2173176787188236,1.04518830020451,2.1923561382882353
6.136736583,0.22429175157352943,-1.2477881844580392,1.1146517044613726,2.2499443572294116
6.146690583,0.2672547189068628,-1.2701058486247059,1.1755301879966666,2.3081609229549023
6.156645583,0.29304989420098043,-1.286187491695294,1.224529981277059,2.358387843837255
6.166599583,0.3086532923637255,-1.2916674678090196,1.2604890390613726,2.3881398408764705
6.176553583,0.3052720997872549,-1.286523924432549,1.27882881663,2.406886447347059
6.186507583,0.3035392602303921,-1.2766780616933335,1.2771407627280393,2.408571730601961
6.196461583,0.3130677911362745,-1.27444750943451,1.276175969277059,2.4044179576215687
6.206415583,0.3146432259401961,-1.285821043250196,1.2853885613633331,2.4062764027215686
6.216369583,0.30672934057941176,-1.2892752916305883,1.2962421630578433,2.4037402814431372
6.226324583,0.29636447438921565,-1.2765606702423526,1.2956548675709805,2.395038956782353
6.236278583,0.27548578706313726,-1.266723979607059,1.269628827574902,2.4035886268411764
6.246232583,0.2498292939670588,-1.2615503173364706,1.2174097321886272,2.4460263898901964
6.256186583,0.24479954199254902,-1.2488029744688236,1.157709620247451,2.49669515782549
6.266140583,0.25789566553960785,-1.223325910637451,1.0961408814905882,2.5448773716882354
6.276094583,0.25039674904745096,-1.188277172619804,1.0406442239670588,2.5965804139039217
6.286049583,0.21858944369058825,-1.1411546221864706,1.0000643094454902,2.6315986096098043
6.296003583,0.18553892856509804,-1.0810771985982353,0.9682240647788235,2.6594294892764703
6.305957583,0.15929544381705882,-1.0206279379511765,0.9324301851219609,2.6909543072960784
6.315911583,0.14048742752686275,-0.9649052339511766,0.8764573922709803,2.7240454646098042
6.325865583,0.1457400271935294,-0.924188182155098,0.8158689334984315,2.740582071119608
6.335819583,0.14885592815431373,-0.8887951004590195,0.763413676537647,2.7429417299823533
6.345773583,0.13155700943666665,-0.8497443904633332,0.7177280564160785,2.7262343124529416
6.355728583,0.12544913407784314,-0.8100417847123529,0.6791492683141177,2.694524766119608
6.365682583,0.14885019558372548,-0.7774427548947058,0.6481924576749019,2.6844873235509805
6.375636583,0.1840679295954902,-0.7554057685378431,0.6241631185815686,2.684890433256863
6.385590583,0.2118825267954902,-0.7443191724986273,0.5896197519815687,2.684440304766667
6.395544583,0.23739856060137252,-0.7356067179888235,0.5302933000403921,2.6879126658843138
6.405498583,0.25888676857392157,-0.7243816690456862,0.46268987933450983,2.689456080198039
6.415453583,0.27743771375039217,-0.7153997496162745,0.4179435054933333,2.693975038845098
6.425407583,0.3087299252601961,-0.7048739703476471,0.4018971807462745,2.710916198531373
6.435361583,0.335261219142549,-0.692940170084902,0.3992180323933333,2.7256219741196075
6.445315583,0.36747010210333336,-0.686027993020196,0.4141586457854902,2.7549343717666663
6.455269583,0.40859921064058824,-0.6900180871182354,0.453017297687451,2.8059454312176473
6.465223583,0.4254055071758824,-0.71389147753,0.48034460398156864,2.8422361613549025
6.475177583,0.42432087160333337,-0.7535135522092156,0.5053199308639217,2.87648643182549
6.485132583,0.41209856284254903,-0.7903844202052941,0.5227920676090196,2.9031330860803926
6.495086583,0.4081181797052941,-0.8132690923190197,0.5230255893541177,2.914147557668627
6.505040583,0.4061442972817647,-0.822798471652353,0.5110975331188236,2.910314952707843
6.514994583,0.41764186087,-0.8346775259268627,0.4869265194247059,2.9059017409431376
6.524948583,0.42680609878372544,-0.8495958023778432,0.4560443352992157,2.899544958060784
6.534902583,0.43464360345823533,-0.8432844095347058,0.41347151483058825,2.870318562354902
6.544857583,0.4507850715686274,-0.8145047465837255,0.3748844317207844,2.822379561070588
6.554811583,0.4716142868601961,-0.7637986440480392,0.3489455037854902,2.7673180269392157
6.564765583,0.5064517454935294,-0.694911702169608,0.327143286014902,2.701057464119608
6.574719583,0.5387053424582353,-0.616677527467647,0.3052548533403922,2.625517760305882
6.584673583,0.5586642398307843,-0.5388491839245099,0.2956142422011765,2.556768561076471
6.594627583,0.5662240476229412,-0.47244879915274507,0.3083513811027451,2.504405645590196
6.604582583,0.5592819351013725,-0.42522388806254896,0.32841930038509803,2.4708925870019605
6.614536583,0.5503837111013725,-0.38632116995274507,0.34119228214196085,2.4464648223352943
6.624490583,0.5312826117288235,-0.3498391876527451,0.3461630001752941,2.4173069506098037
6.634444583,0.5086981654739215,-0.31445609209392156,0.3275905922929412,2.376692330492157
6.644398583,0.49497745610137256,-0.28198920934882354,0.2945215781752941,2.332665490570588
6.654352583,0.4895014239837255,-0.25489899044098036,0.25697574658705885,2.290132923707843
6.664306583,0.49428222215235296,-0.24052223494294117,0.2144500936654902,2.250477858354902
6.674261583,0.5181877493229412,-0.24540999129784313,0.17267861690078434,2.218467635590196
6.684215583,0.5600736824601961,-0.27387640399588237,0.1371378528811765,2.1937141398058824
6.694169583,0.6027747289327451,-0.31256078018411765,0.11215420232627453,2.1848207037470586
6.704123583,0.6534380206817647,-0.3405263960664706,0.09861054320274514,2.1990238434333333
6.714077583,0.7130057963778431,-0.3560899299703921,0.09565953945176472,2.236136507707843
6.724031583,0.7716315282954901,-0.36849984263313723,0.10377785952431375,2.290969111123529
6.733986417,0.8316152129954901,-0.3805150682390196,0.12934693674000003,2.352404847745098
6.743940417,0.9047876136294118,-0.37945626360039214,0.18857378250470588,2.397274838235294
6.753894417,0.9826377753137254,-0.3687445543396078,0.27549389287725495,2.4060484181764705
6.763848417,1.0458287265980393,-0.3615773240209804,0.3679489087988235,2.39368990545098
6.773802417,1.0854443464039214,-0.36251651297196075,0.4637459295047059,2.363290433823529
6.783756417,1.1163497130058824,-0.3712726381562745,0.5556122225243137,2.3227871494117647
6.793710417,1.1511205936254902,-0.3913821299954902,0.6271148303321569,2.2835425491960786
6.803665417,1.1919427118686274,-0.42051404756411764,0.6689773631380392,2.2525678686470587
6.813619417,1.2426813409666668,-0.4521240495229411,0.6961621808184315,2.2228753640980394
6.823573417,1.290542566711765,-0.48572521184389605,0.7259902266007844,2.1862101209607845
6.833527417,1.324455546152941,-0.514957082398798,0.7546572675890196,2.151281242960784
6.843481417,1.3398750665686276,-0.5391488823693862,0.7733857617380392,2.1338033889215686
6.853435417,1.324245149564706,-0.566614148561151,0.7790908914831373,2.149041466372549
6.863390417,1.268739308472549,-0.5988299679199746,0.7722963466439217,2.1875297054313725
6.873344417,1.1736903071784313,-0.6324570873062489,0.7534139331458823,2.222675176647059
6.883298417,1.062300619707843,-0.6620631567415431,0.730667622219608,2.2654551569607846
6.893252417,0.9556699351980393,-0.6808004446435039,0.7256122227529411,2.3148943602941174
6.903206417,0.8620679019431372,-0.682262260016053,0.7548682016215688,2.3459600450392157
6.913160417,0.7805777911784314,-0.6566155581395824,0.8078844215431372,2.35808393654902
6.923114417,0.721982476235294,-0.5840369823827196,0.8675760234823529,2.39296207
6.933069417,0.6911363614117647,-0.4642284852768372,0.9252603307588235,2.4752845349019608
6.943023417,0.6717927516470588,-0.3201185586238961,0.9798719376803922,2.580140686627451
6.952977417,0.6473167999215685,-0.1881823973944843,1.0162687570137257,2.657315366666667
6.962931417,0.6218071063333334,-0.08972562735526862,1.0109506226411764,2.6705722534313723
6.972885417,0.6215467217843137,-0.023327856649386258,0.9746307773470587,2.640350767372549
6.982839417,0.6478348402843137,0.01679123136041766,0.9328159881901962,2.6037280601176467
6.992794417,0.6860507971862745,0.03522669975257453,0.900268425327451,2.587955765098039
7.002748417,0.7346848299333333,0.04751078263492747,0.8808965626117647,2.5975254659607843
7.012702417,0.780631814864706,0.058581052340809826,0.8717563986039216,2.616292474470588
7.022656417,0.7917127012568627,0.07014536590943728,0.874783077945098,2.617577239843137
7.032610417,0.7736923049117647,0.07760480794865296,0.8820396674764706,2.6082458711960785
7.042564417,0.7444459424294118,0.0759498395564961,0.8916066524254901,2.6157001260784316
7.052518417,0.7089176295366667,0.06339130442904511,0.899118272282353,2.645196273401961
7.062473417,0.6639167126372549,0.037565941461986295,0.8965806896078431,2.6864818942588236
7.072427417,0.6074900841215686,0.003023205446300018,0.8913866308745098,2.737219148254902
7.082381417,0.5431294489411764,-0.03315868856938626,0.8819013005725491,2.7984306109901964
7.092335417,0.47028912430784314,-0.06721483307330782,0.8649237494156863,2.863525294062745
7.102289417,0.39240610356470584,-0.09598695196271959,0.8386046750666667,2.923729300058824
7.112243417,0.3088921109686274,-0.11629292171958233,0.8017560780803922,2.9756598995294112
7.122198417,0.22142167441960783,-0.12856854333134704,0.759027836335294,3.0180371667254904
7.132152417,0.13223569920392156,-0.13214582400585687,0.714451157864706,3.0504407912549016
7.142106417,0.04402364079215686,-0.1293751724627196,0.6721186464882353,3.0747795928235293
7.152060417,-0.03809308510980393,-0.12175940337801372,0.6351025325137255,3.0936897732941175
7.162014417,-0.10721297546274511,-0.11322574755134704,0.6061310751568627,3.1039465246862745
7.171968417,-0.1575327490117647,-0.11159170300820978,0.5849500179901961,3.102621627745098
7.181922417,-0.19018699489215687,-0.12188610450820977,0.5710177741352942,3.1006222415882356
7.191877417,-0.21172155637254902,-0.14029542095919018,0.5675840884705882,3.106826639784314
7.201831417,-0.23099835884705885,-0.16229461825330782,0.5776293412607844,3.1186879745882354
7.211785417,-0.2557541399705882,-0.18569811036703332,0.5973237209137255,3.1282462055490194
7.221739417,-0.2866263265,-0.20817663029252348,0.6246268444019608,3.1316010925686273
7.231693417,-0.32044869700980394,-0.23341121811213136,0.6595024704392157,3.1344687450392157
7.241647417,-0.34330685028431374,-0.2719200517317392,0.6931888530666667,3.1455171447450976
7.251602417,-0.3467828136176471,-0.3165992227135039,0.7275340563803921,3.1716452330784315
7.261556417,-0.3482320861470588,-0.33499883964879806,0.7673677085568628,3.1957634937450985
7.271510417,-0.3393426444607843,-0.34129780430356277,0.7897116909294117,3.2152053719803924
7.281464417,-0.32317367150000004,-0.34469986341532743,0.8050976271058823,3.236517011823529
7.291418417,-0.28866232699019606,-0.3510315380819941,0.8189137578705882,3.2715247735490194
7.301372417,-0.24447259087254902,-0.3561618965623863,0.8501998126117647,3.3240459589999998
7.311326417,-0.2137104695784314,-0.34786152170944507,0.906339044747059,3.380794320117647
7.321281417,-0.21148280653921572,-0.305508178201602,0.9872099754980392,3.44833865282353
7.331235417,-0.22607105926274515,-0.227656824135549,1.0705475426960784,3.529933574117647
7.341189417,-0.234685635967451,-0.12064782475711762,1.121625092472549,3.6145197436274508
7.351143417,-0.2140036558556863,0.006605702752686281,1.1326642687392159,3.698478863117647
7.361097417,-0.17947449453607844,0.13389509316445097,1.113904438954902,3.7616534403529407
7.371051417,-0.15765539149686278,0.24091253087033335,1.086581500856863,3.790497599235294
7.381006417,-0.1536707318694118,0.31776116771347057,1.0599340078764705,3.7981037245882354
7.390960417,-0.15303879690862746,0.3682380249997451,1.038058186837255,3.795390509568628
7.400914417,-0.14062742818313725,0.3969624260232745,1.0254340568450981,3.778766788235294
7.410868417,-0.11898605757529412,0.3939279389448432,1.004606727564706,3.764752138509804
7.420822417,-0.10101305808509806,0.3515343299095491,0.9605882804666668,3.757542678647059
7.430776417,-0.1039252925027451,0.2587987852232745,0.8950247182705883,3.712453989431373
7.440730417,-0.12695273985764707,0.1208469168115098,0.8107527402078432,3.6071819865882353
7.450685417,-0.15408662944196078,-0.03981394356103922,0.7084015955568628,3.4745802111764705
7.460639417,-0.17359022362431373,-0.18720141801201962,0.6019905141058824,3.3579647899411764
7.470593417,-0.17531250380078434,-0.28603844052182353,0.5133102456490196,3.2894016001176465
7.480547417,-0.16974786917333337,-0.3298628632277059,0.4461639997862745,3.2688566426666665
7.490501417,-0.1714787023301961,-0.32861797954927446,0.3892466494333333,3.266018517137255
7.500455417,-0.18964855809490197,-0.29505383811986274,0.33594649274705884,3.2539078700588235
7.510410417,-0.23225524655176474,-0.25454298666103925,0.2881838470509804,3.2273790479803925
7.520364417,-0.29424856195568627,-0.2179000798277059,0.24668616043137256,3.1957889482156863
7.530318417,-0.3538518451517647,-0.1823155763531961,0.2079972669647059,3.1848985616274508
7.540272417,-0.3972181671792157,-0.14552253364143136,0.1754804306529412,3.194986714392157
7.550226417,-0.42488803434392153,-0.11244851501005881,0.14682938208039217,3.205436728352941
7.560180417,-0.4359753469517647,-0.08847094096888236,0.11730190610588236,3.2077658194705885
7.570134417,-0.4287143433439215,-0.07150245873750981,0.08887484745490197,3.1981652767058826
7.580089417,-0.3979746650301961,-0.05469933805711765,0.06760352533137258,3.1687844647058823
7.590043417,-0.34646928824196077,-0.03804277610809804,0.05518086344509805,3.123086838
7.599997417,-0.27936004323960784,-0.02634657916692157,0.0522382693647059,3.0709151223333335
7.609951417,-0.20453773033176467,-0.019313605519862748,0.059198909527451,3.020446507627451
7.619905417,-0.1287800291709804,-0.020370598657117652,0.0753406786019608,2.9728494907254905
7.629859417,-0.054779634143529404,-0.03279974980221569,0.09391487361568629,2.932205005078431
7.639814417,0.017458811360392158,-0.05657647772182354,0.10945138993725494,2.899549217862745
7.649768417,0.08851518490941175,-0.08744507566692158,0.1171538697901961,2.8734835744509803
7.659722417,0.15477329316431374,-0.1192622983594706,0.1161847611529412,2.851157587705882
7.669676417,0.20817007222901956,-0.1434279922312353,0.1066754171411765,2.833969377862745
7.679630417,0.23943182662666665,-0.150332212497902,0.08947692148627454,2.824627841862745
7.689584417,0.24950508872862745,-0.13843263565084313,0.07001612949803923,2.8121331364745092
7.699539417,0.24698366615215683,-0.11516552123319608,0.047138881060784336,2.786608676170588
7.709493417,0.24209237853843135,-0.08702291816064707,0.022333513980392173,2.7502321446019606
7.719447417,0.24220593490509806,-0.05902377824103922,0.0031722972098039404,2.720113235092157
7.729401417,0.24902478582666662,-0.03425607338613726,-0.010324621437254888,2.702886301719608
7.739355292,0.25726470504235294,-0.011945827160647063,-0.02600141933921567,2.688011967307843
7.749309292,0.25187723533647055,0.018196775907980384,-0.04246889837843136,2.6622504579352944
7.759263292,0.22543277259137254,0.04939769060013725,-0.06810891608431371,2.6165942115431378
7.769218292,0.20037709237568627,0.0499654781687647,-0.11164715771176469,2.5699280606999997
7.779172292,0.17369548492470588,0.037299847274509794,-0.14705780971764704,2.5308027492490193
7.789126292,0.15023016710117645,0.024545820237254892,-0.1848229434162745,2.495236038837255
7.799080292,0.11534750147372547,0.021787654218823515,-0.22649749110843134,2.4527480268960784
7.809034292,0.11642316557176469,0.019817348916862737,-0.3726937157554902,2.495063271660784
7.818988292,0.0943207362580392,0.006494353401176462,-0.47657656434372553,2.4682145612882356
7.828942292,0.07808701972470587,-0.011615814892941183,-0.5402084931398039,2.408410693680392
7.838897292,0.085191719232549,-0.05198922240274511,-0.571996640257451,2.358643336092157
7.848851292,0.09202348561764706,-0.12030580852039219,-0.5065323603358823,2.3588547275235294
7.858805292,0.09758759858039215,-0.21424452675568628,-0.423516814202549,2.327728952052941
7.868759292,0.1109508023,-0.3103241170027451,-0.35008500355549016,2.261590471484314
7.878713292,0.15584386100588232,-0.387676325212549,-0.2977341473319608,2.1986524091509803
7.888667292,0.24013711547647057,-0.43230777834,-0.2629425721437255,2.1532636869941175
7.898622292,0.3492343103392157,-0.4411605316282353,-0.2402447931045098,2.115589408680392
7.908576292,0.46693372249607845,-0.4229977957184314,-0.23943598273196076,2.1045793273666664
7.918530292,0.5794648782019608,-0.38434618686745103,-0.2496653339672549,2.1144911124058825
7.928484292,0.6691987547509803,-0.3409443344105883,-0.2634077668888235,2.1325421590529414
7.938438292,0.7247573468960783,-0.3026517216694118,-0.27751466479078435,2.1487276126411765
7.948392292,0.7420563687980392,-0.273666741194902,-0.28908438702215683,2.153062410954902
7.958346292,0.7267046588803922,-0.2509586091378431,-0.29406625774372547,2.1490652396607843
7.968301292,0.682574122964706,-0.22887263229274513,-0.29388129082215686,2.1543815805823527
7.978255292,0.6080333133568627,-0.2088437746947059,-0.287228549557451,2.1716336653470587
7.988209292,0.5103025840627451,-0.19184472642019612,-0.26654583566764706,2.1961824062490196
7.998163292,0.40840214221960786,-0.17214680977509805,-0.23237177232254902,2.2279044857588235
8.008117292,0.3216862888470588,-0.14316523443980395,-0.19303828640490195,2.2630522400333333
8.018071292,0.2649930616960784,-0.09805248668294121,-0.15456198796764706,2.3053772175039215
8.028026292,0.24204111794313726,-0.03829793257509806,-0.11912623593039214,2.3590983316411767
8.037980292,0.25342158817058824,0.03502854791117643,-0.08897674232647058,2.4141975096803923
8.047934292,0.30153425565490194,0.1141364915523529,-0.06755835126372549,2.4617977567392155
8.057888292,0.3780675785176471,0.1822097761758823,-0.052905577091176464,2.4928921573666667
8.067842292,0.46351320455686273,0.2222954089386274,-0.04249199557352941,2.5002234337588236
8.077796292,0.5430960739490196,0.2270832352327451,-0.030072303155882354,2.4988814601313725
8.087751292,0.6137142674588235,0.20804424245431372,-0.012352192871372547,2.523143258170588
8.097705292,0.6738824776705883,0.18645590952490193,0.011813073924705883,2.561126718798039
8.107659292,0.7135051084133334,0.17784517364254898,0.042004541363921566,2.5898831796215687
8.117613292,0.7303424983682354,0.17742360085823528,0.07748245355411765,2.6082504763274508
8.127567292,0.7274268301427451,0.17833106579941174,0.1133415038717647,2.6217646279156863
8.137521292,0.7050842694486275,0.17972517958372544,0.14328947346588233,2.632467277837255
8.147475292,0.6700053036113724,0.18662970940725487,0.16280116776,2.638288750484314
8.157430292,0.6239151192388235,0.1991031388778431,0.175086271032549,2.6437967363666663
8.167384292,0.56969966118,0.21192710319941171,0.18343265114627452,2.656982686954902
8.177338292,0.5114276112721569,0.2210524055268627,0.18752988114235294,2.6819926715235294
8.187292292,0.4548005436392157,0.22202308918568625,0.18677148007372552,2.7191465020529413
8.197246292,0.4000032704372549,0.21859507302098033,0.1771333367992157,2.7652001994803923
8.207200292,0.34222920267058826,0.21421906268764704,0.15776327123450978,2.8173197081764707
8.217155292,0.2763591488960784,0.2081296117915686,0.12541794106,2.8723672377254905
8.227109292,0.20345124306470588,0.20128214391117644,0.08007968567372549,2.9116822465882355
8.237063292,0.12404152577058827,0.19012964631117646,0.024503265242352943,2.928016584078432
8.247017292,0.04302999241764708,0.17140095724254897,-0.03421158513019608,2.927566449784314
8.256971292,-0.03290719534705881,0.14468516650725488,-0.08885442878509804,2.9201848942941178
8.266925292,-0.0954531356607843,0.11390874820725486,-0.13729566392235296,2.9145474088823526
8.276879292,-0.1425010423745098,0.0790202697523529,-0.17291333602823528,2.9199098143137254
8.286834292,-0.17963162419411766,0.03657738357980389,-0.19333437554392158,2.939538700156863
8.296788292,-0.21200759419803922,-0.01176335971823532,-0.19625417694725492,2.96580015527451
8.306742292,-0.23762984095239215,-0.05814803740176474,-0.17909007667862747,2.9849956977843135
8.316696292,-0.3006652505563137,-0.09525837754490198,-0.05049219405117646,2.906737711156863
8.326650292,-0.3165762810425882,-0.12188085358803924,0.034233441948823544,2.900533792627451
8.336604292,-0.29161820919552944,-0.15587625583313727,0.06350165409784315,2.9217908797843135
8.346559292,-0.2558978783327843,-0.1775011625213726,0.06757948796058826,2.9330577008823533
8.356513292,-0.1933471341210196,-0.18065887681549023,0.009063715235098063,2.9141321035294117
8.366467292,-0.11465369502298038,-0.16204243136450983,-0.034048783176666646,2.943011839019608
8.376421292,-0.026636004944549034,-0.1333978047056863,-0.04515306705901958,3.0193487332549025
8.386375292,0.043627927545647045,-0.11431808779784317,-0.023428721145294096,3.0923333583529415
8.396329292,0.08359589370250979,-0.11343740539784317,0.0312160658429412,3.1367334493921573
8.406283292,0.0977638290750588,-0.12736637882725493,0.10959786554882354,3.1689943449607845
8.416238292,0.08303778270250979,-0.14647935607235296,0.20255420568607843,3.182896509
8.426192292,0.05042983301623528,-0.1454201501547059,0.2920247110194118,3.1750413403137254
8.436146292,0.027620366408392136,-0.0924329112194118,0.3621214876860785,3.188716125980392
8.446100292,0.035310590035843116,0.015170302843333315,0.39854909373901964,3.264269005745098
8.456054292,0.07706849207701959,0.14923865699627448,0.4020439057390196,3.3841362876666667
8.466008292,0.13061139420643136,0.271646012154902,0.3851609848762745,3.4924195656470585
8.475963292,0.17230193289074505,0.3496488664274509,0.35915493146450983,3.5393734000784316
8.485917292,0.1994843543613333,0.38797861473137246,0.32156993499,3.551516310784314
8.495871292,0.21898093189074508,0.3958782489392157,0.27078638551196077,3.5570403373137256
8.505825292,0.2389117683613333,0.37825294093921563,0.2091726575982353,3.5574933455686275
8.515779292,0.25737153710643135,0.33749909753999996,0.14534345407274513,3.551876605980392
8.525733292,0.266569184400549,0.26926437243999995,0.08877201812568629,3.5328626990980396
8.535687292,0.2675098007534902,0.17761366969294115,0.03879911630411767,3.4996687840000003
8.545642292,0.25638776027113724,0.06523384224196078,-0.0022068538723529194,3.456021417019608
8.555596292,0.22236880292407843,-0.05681271679725491,-0.030887085499803894,3.4116021303529407
8.565550292,0.15638750874760782,-0.17013339566,-0.050871021280196056,3.3896598830784317
8.575504292,0.06337260472799996,-0.25825350373843137,-0.06667087441352938,3.410984532019608
8.585458292,-0.04339654415435296,-0.30828432165607844,-0.08210081376647056,3.456557632647059
8.595412292,-0.16322533454650984,-0.32508842834235296,-0.09921768343725489,3.488957661470588
8.605367292,-0.28086993764454904,-0.32018741830313724,-0.11968728350392155,3.5029575427647064
8.615321292,-0.37439563607592163,-0.3047731145207843,-0.1430170319098039,3.5074146381764706
8.625275292,-0.4399947172523922,-0.28143396470254906,-0.1711215707659137,3.505644152235294
8.635229292,-0.4783193291680784,-0.24880776253196077,-0.20368934664297253,3.4986979268235294
8.645183292,-0.4912223799523922,-0.21057880417313726,-0.23680544802924702,3.4860472185686273
8.655137292,-0.4879454799131765,-0.17476277387705882,-0.2649755272861098,3.4733047988039214
8.665091292,-0.47392328926611765,-0.14585638684764707,-0.28805665437630584,3.4604817843333335
8.675046292,-0.4525122760112157,-0.12669437324705884,-0.30530977276061955,3.442784674607843
8.685000292,-0.4236379168151373,-0.11592050005686275,-0.312746450801796,3.416559957156863
8.694954292,-0.3841793119327843,-0.10528441478431373,-0.31077111803905094,3.378291826333333
8.704908292,-0.33620716107396076,-0.09266246602941178,-0.303942688001796,3.3317734168549022
8.714862292,-0.28035679286023535,-0.08015961703333335,-0.29485528221748236,3.281587630856863
8.724816292,-0.21950017618247256,-0.0690100545019608,-0.28881378996258034,3.2359016854058824
8.734771542,-0.16216576744972747,-0.06239567268823531,-0.2882189905312078,3.200221014405882
8.744725542,-0.10957123783011966,-0.05635374475490198,-0.2872009559037568,3.1693015582686273
8.754679542,-0.06188900566737454,-0.04063553479411766,-0.2848797374096392,3.137593233307843
8.764633542,-0.014731750292864741,-0.008198793868627468,-0.28382573092728625,3.1052023410333334
8.774587542,0.031201906413017615,0.03714073413176469,-0.2824418554939529,3.0808377391509807
8.784541542,0.08505868938164507,0.09618691526509804,-0.2768557796449333,3.073287970680392
8.794495542,0.13560588522086076,0.160964904065098,-0.2697267454019921,3.063484968307843
8.804450542,0.1585832930228215,0.21707415489215687,-0.2696785803961098,3.027186999019608
8.814404542,0.15559605946540978,0.2535924013960784,-0.28328663340787447,2.9913515367509804
8.824358542,0.14116945932031172,0.27524532886862746,-0.3131172015216,2.9640219846431375
8.834312542,0.12240822649089997,0.28581383866274507,-0.3507437332804235,2.9279238445784315
8.844266542,0.10019854090854702,0.27904885091960785,-0.3764019662078745,2.896720563892157
8.854220542,0.0753205587124686,0.2550574499333333,-0.388742913266698,2.86955995595098
8.864175542,0.03159056281050781,0.2237816564745098,-0.3924456769137568,2.829861271088235
8.874129542,-0.03911204844439414,0.18839490353078434,-0.38906961783532545,2.7663242164999997
8.884083542,-0.12303859650321768,0.15602456864039216,-0.38602386338434513,2.6862980549117643
8.894037542,-0.18896952436596276,0.1410551003835294,-0.39783553997061954,2.6191649384803917
8.903991542,-0.22359376313066864,0.14495378301098039,-0.4364652506051293,2.5750052290490193
8.913945542,-0.23562285581694317,0.15389987391294116,-0.4965498055090509,2.539291025598039
8.923899542,-0.23547002852282548,0.15504219054823526,-0.5622908307208156,2.504789243754902
8.933854542,-0.23101674609145292,0.1261712651717647,-0.6198001457365019,2.4784651988333333
8.943808542,-0.23279193209145296,0.04052071143647057,-0.6574307390188548,2.433191655598039
8.953762542,-0.2462732810914529,-0.09973220830862747,-0.665848565516894,2.3435690623235295
8.963716542,-0.2652950216992961,-0.26121454513215686,-0.6479182850894429,2.233918647127451
8.973670542,-0.2660589346208647,-0.40557999509294124,-0.6160507046816,2.1471476615784315
8.983624542,-0.22864690108949215,-0.5011974374654902,-0.5793057008659136,2.11085617277451
8.993579542,-0.15580091267772744,-0.5581515994850981,-0.541847669226698,2.0979459077156863
9.003533542,-0.05780977018753138,-0.5912765462262746,-0.5070808931188548,2.0853099672647057
9.013487542,0.050149092185017646,-0.6091776478988236,-0.4716627371894431,2.073478146166667
9.023441542,0.15600743977325293,-0.6108923152260785,-0.43446077920905096,2.0675550754019607
9.033395542,0.2481450779889392,-0.5950323389554902,-0.4073262819815999,2.069319277343137
9.043349542,0.3264098703222726,-0.5663023658711765,-0.3966053576286588,2.076884772362745
9.053303542,0.3860895514007039,-0.5308187325966667,-0.39830443525610976,2.07810281577451
9.063258542,0.42303925934972353,-0.49422356655352945,-0.40437792668748235,2.0617139743039217
9.073212542,0.44549918283795886,-0.45417639928666664,-0.40159297382865883,2.0249094230686273
9.083166542,0.4633989402301157,-0.4015414034870588,-0.3779390840208157,1.9831234834215685
9.093120542,0.4804999077791353,-0.33828342706549025,-0.3302514890600314,1.9505825441666667
9.103074542,0.5025297800144294,-0.2683607369086275,-0.2718538472816,1.9308728031470588
9.113028542,0.5223010104261941,-0.20142851922235294,-0.2221562719325804,1.9260269699901962
9.122983542,0.529775838681096,-0.13980043696549024,-0.18979540723650193,1.9428168988333334
9.132937542,0.5345135594850177,-0.0779931318229412,-0.16801714585098035,1.97594640677451
9.142891542,0.5437302962105078,-0.008521479836666698,-0.15045133183470588,2.023737365735294
9.152845542,0.5571910681810961,0.06867020511823527,-0.1271060854405882,2.0825516365392156
9.162799542,0.5741356914948216,0.1468496109005882,-0.10076502240529409,2.1420356317941174
9.172753542,0.5973090612816843,0.21414161579274507,-0.06786431065039214,2.1877487912058826
9.182707542,0.6366254240424687,0.26892595634117644,-0.03546031700921567,2.2167783135588235
9.192662542,0.6880990997483509,0.30655266294117645,-0.013656372299411747,2.233555362931373
9.202616542,0.7420480508856058,0.3208052052333333,-0.001493100352156845,2.2504125168137254
9.212570542,0.7986897021640371,0.3152492841058823,0.005651643981176489,2.279555454154902
9.222524542,0.8553533550091353,0.2982327629666667,0.010224486210588253,2.3197968480745095
9.232478542,0.9080896796058823,0.2784944317490196,0.01811475628313727,2.357041410290196
9.242432542,0.9493162703829412,0.26475258068039215,0.029115057155686293,2.378977651290196
9.252387542,0.9631951010711765,0.2566998411392157,0.0342708796929412,2.384746050780392
9.262341542,0.9418461198966667,0.2436868971,0.031161204296862765,2.398956641388235
9.272295542,0.8870032899927449,0.2182919923901961,0.02238589652823531,2.43435677207451
9.282249542,0.8062490398554902,0.18488156393882352,0.014108003361568646,2.4751756344078433
9.292203542,0.6945722368750981,0.14051022019764703,0.006589239296862765,2.5083926104862746
9.302157542,0.5760784174241177,0.09546439439764705,0.003438060130392175,2.543763566760784
9.312111542,0.4832960606064705,0.06321346880588234,0.011029431420588254,2.6051621412058825
9.322066542,0.4091026042711764,0.04390169769411763,0.028588379257843154,2.6782852182
9.332020542,0.33732888629470587,0.03332493300588233,0.04915159210294119,2.748341403170588
9.341974542,0.2571468320809804,0.025545040603921553,0.06364212753823531,2.821622577078431
9.351928542,0.16939341895745094,0.01543922900392155,0.06223810500882355,2.876694086509804
9.361882542,0.08633912642803919,-0.0042985748313725675,0.04381828652647061,2.903580610392157
9.371836542,0.0193931333888235,-0.035594420803921584,0.015929822357843158,2.9114332868039217
9.381791542,-0.03278337763078434,-0.071774938997451,-0.015346054226470564,2.9120032073725493
9.391745542,-0.07327779383274513,-0.10538971044039218,-0.04264986848607841,2.9124951026078434
9.401699542,-0.10859333685823533,-0.13108893407764707,-0.06128753302333331,2.9105009378431372
9.411653542,-0.14878080576019612,-0.14687843419333335,-0.06825356161823527,2.8951988286862744
9.421607542,-0.19117802631039219,-0.1481279268521569,-0.06786525777313723,2.8627360634627452
9.431561542,-0.22911223052823534,-0.1369075442239216,-0.06603437990098036,2.8235396882621573
9.441515542,-0.2533023709243138,-0.11654568197098042,-0.053845262687254876,2.800496031691569
9.451470542,-0.25997402678705883,-0.08679297354156865,-0.027018559738235276,2.7991709410249017
9.461424542,-0.26092533151254904,-0.05474152974156865,0.007598971922549042,2.804362129338627
9.471378542,-0.2680819881203922,-0.024883250416078456,0.04094193955392159,2.8009415387896075
9.481332542,-0.2701728119831373,0.009178500530980372,0.07074581971470591,2.79854224977
9.491286542,-0.25059950980666673,0.04822564486039213,0.10031910174215689,2.817364993181765
9.501240542,-0.20994522384588238,0.09211984435058822,0.13651565822058825,2.857630129515098
9.511195542,-0.17073658743411768,0.13283049860941176,0.1764389218382353,2.895641156260196
9.521149542,-0.15171383502235297,0.16354125612313722,0.21348975795980393,2.9141734211229413
9.531103542,-0.14926546825764708,0.1820312870633333,0.2498560786009804,2.919304487358235
9.541057542,-0.1629240423556863,0.1890564644358823,0.29145774247156864,2.909988506005294
9.551011542,-0.1939937730439216,0.1947179335378431,0.3508194554127451,2.8941925094366665
9.560965542,-0.2297088872747059,0.2096850055770588,0.4300855260990196,2.902301493691569
9.570920542,-0.2604964496884314,0.24802432725941173,0.5179429566088235,2.9494714839464704
9.580874542,-0.28010890527470594,0.3177944050709804,0.5872276008813726,3.0226576242013725
9.590828542,-0.276653387137451,0.40904534170274515,0.6076204985245098,3.0882817461229415
9.600782542,-0.24754087430803925,0.49304926218313727,0.5663456553186275,3.129072761671961
9.610736542,-0.20448278079823531,0.5422288974772549,0.4756846454362745,3.147910690750392
9.620690542,-0.15992824150019608,0.5618909282811765,0.38584941143627455,3.1532214166523524
9.630644542,-0.1281399625237255,0.5529228472615686,0.31991412108333334,3.137381170162157
9.640599542,-0.1172149817982353,0.5041689465968627,0.25623581298529413,3.113378815456275
9.650553542,-0.1251858889747059,0.4140580335694118,0.20289007237549023,3.081680830260196
9.660507542,-0.15003197518058825,0.29146463374588233,0.16636688297549024,3.050122169456275
9.670461542,-0.18488481427862746,0.15104934484392155,0.1434536526637255,3.0308210077699997
9.680415542,-0.23163125688901964,0.01406998303999997,0.11478352898333337,3.034494402122941
9.690369542,-0.29955851590470595,-0.10304186994039218,0.07517788383235297,3.059938130828823
9.700323542,-0.37467727119882355,-0.18638383974431375,0.03892485012450983,3.0901640752601964
9.710278542,-0.4432448920419608,-0.22770800450705886,0.01174759083411767,3.104890666005294
9.720232542,-0.5137558923556863,-0.23165437060705885,-0.012040564948235272,3.099348179750392
9.730186542,-0.5921373423752941,-0.20571064163254904,-0.030879238981568604,3.0813201973386275
9.740141083,-0.6744992787086275,-0.15855856850313732,-0.044020317309019584,3.064227446632745
9.750095083,-0.7504865776694117,-0.10157064167960787,-0.05155557825999998,3.063080125946471
9.760049083,-0.8053467715066666,-0.03950801958156867,-0.050949207665882325,3.085017259064118
9.770004083,-0.8351193748086275,0.02477003228117643,-0.04279959926196076,3.106711136142549
9.779958083,-0.8484198241419607,0.08058555794784308,-0.02314123301686272,3.108842371024902
9.789912083,-0.8482759023772548,0.1186574555086274,0.005551376645882378,3.097884061260196
9.799866083,-0.8245858451027452,0.14301352783803917,0.027050100998823556,3.06674597477
9.809820083,-0.7748031870439215,0.15553664717137253,0.030748042122549047,3.0180466341621575
9.819774083,-0.7046569440752941,0.1575285183870588,0.015848671663725514,2.9686700381033333
9.829728083,-0.6205702568223529,0.15533326724980387,-0.016295618191176444,2.921623497809216
9.839683083,-0.5263934967301961,0.15024589152431367,-0.058877668079411735,2.8750818402013727
9.849637083,-0.42545997225764703,0.14731880975960782,-0.10194671077549017,2.828487167142549
9.859591083,-0.33101590268901954,0.14881753138705878,-0.14082970600490194,2.7874251944758828
9.869545083,-0.25273054191647054,0.15640955619098035,-0.17276757624803918,2.7546678035347063
9.879499083,-0.19085533168117644,0.16844459354392152,-0.19367896498725487,2.733438349691569
9.889453083,-0.1383934020145098,0.1809663829360784,-0.19984134287588232,2.7248578647503923
9.899408083,-0.09246558965568628,0.19147338232823524,-0.1932045925986274,2.727764041377843
9.909362083,-0.05486056074784313,0.19711357215176464,-0.17797152096921567,2.7378393272209807
9.919316083,-0.02380069006156863,0.19440225264196073,-0.16252276447117645,2.752664748691569
9.929270083,0.0005301618611764685,0.17806098173215681,-0.15371426944568622,2.777193455699412
9.939224083,0.02140575503980392,0.15060777683921564,-0.1508636135178431,2.81155846107647
9.949178083,0.03709907133784313,0.11728675346862741,-0.15728492148647055,2.8357592349215683
9.959132083,0.041637826298627445,0.07830726485294115,-0.1754446284452941,2.841010754705882
9.969087083,0.040351054769215675,0.0400395428960784,-0.1998272855472549,2.8373759566274517
9.979041083,0.04368184090647058,0.00991427511960781,-0.2216380312315686,2.8370572823725495
9.988995083,0.041243620769215686,-0.016929684290196114,-0.23947034499627445,2.831435787294118
9.998949083,0.017165830024117642,-0.044291408911764744,-0.2560896710707843,2.803603026294118
10.00890308,-0.030013977270000002,-0.07340667911960788,-0.2743925094178431,2.7515189289607846
10.01885708,-0.08045226013274509,-0.09868379110588238,-0.2901036446766666,2.696713733784314
10.02881208,-0.11260760954450981,-0.11645421324127454,-0.29817253714529407,2.6616080906470585
10.03876608,-0.13404736585823532,-0.13375418674950984,-0.3065734826727451,2.6364196481764703
10.04872008,-0.14667796505431374,-0.15360262907107847,-0.320463494727647,2.6164998985098045
10.05867408,-0.14639473338176473,-0.17508867012598042,-0.3472088439982353,2.593942504392157
10.06862808,-0.1282490461176471,-0.20015410143421572,-0.39131807339431374,2.556166622511764
10.07858208,-0.0894144423392157,-0.23916689624401963,-0.44970691139627444,2.499729563864706
10.08853708,-0.03503843665294119,-0.3010532534479412,-0.5026334740150981,2.4296691321588235
10.09849108,0.02285153783725488,-0.37976349469303927,-0.5234462110580392,2.3596616718254904
10.10844508,0.07923197334117646,-0.44872640451656864,-0.5049876031678431,2.307978206982353
10.11839908,0.13825911089019605,-0.48111334092833336,-0.45648725383137256,2.285019440335294
10.12835308,0.20084253645490194,-0.48104505463421565,-0.41435960425294116,2.2902799505313727
10.13830708,0.2757460797921569,-0.45183223912441184,-0.39569853937058824,2.3262963616490198
10.14826108,0.3602386956549019,-0.3876940389106862,-0.38008230313529406,2.37515693355098
10.15821608,0.44515035624313726,-0.2970997560597059,-0.36344320545098036,2.4199950915509802
10.16817008,0.5297089109294117,-0.18765953027539217,-0.3419035405549019,2.448467323492157
10.17812408,0.6110352107921568,-0.06475408405970591,-0.3122438487156862,2.46200253382549
10.18807808,0.689235592027451,0.060045516077548995,-0.27502939803725485,2.456489687315686
10.19803208,0.7732883253019608,0.17473811223441174,-0.22749979970392156,2.437412708492157
10.20798608,0.8514602816352942,0.2686644595873529,-0.17985707494509803,2.419568187452941
10.21794108,0.910171663792157,0.33376136239127446,-0.13844700484901956,2.4105675414529415
10.22789508,0.9598130485568629,0.3692535830442156,-0.09424919729019603,2.4034718322960784
10.23784908,1.0070330525960782,0.3678606157634313,-0.05459610944313722,2.385982977080392
10.24780308,1.0510879788470588,0.324902486712451,-0.02321222561176467,2.369818645727451
10.25775708,1.0885148625882353,0.25618592810460783,0.0033511906960784657,2.35734142737451
10.26771108,1.1108177166784312,0.17958578647715687,0.03343800157450984,2.3439153193156863
10.27766508,1.1145520725019609,0.10679241153598037,0.073620422954902,2.3456230973156864
10.28762008,1.1044497061686274,0.054873997771274496,0.10981893853333335,2.3648811101784317
10.29757408,1.0909962088156862,0.03569183993794116,0.12502484068235298,2.3830463954921566
10.30752808,1.0747028564235295,0.050809494984999974,0.11934017475882355,2.3973676809039213
10.31748208,1.0462757719921567,0.09551421027911762,0.10713349153509806,2.4222934991000002
10.32743608,1.0050834934745096,0.16057536482813725,0.09704595248607846,2.451999642511765
10.33739008,0.9594896918490196,0.23896678378892156,0.08796491844882356,2.4839576507862744
10.34734508,0.9188382807764707,0.3388344525732353,0.0789313944684314,2.5274590203941174
10.35729908,0.878695565990196,0.440997119102647,0.07313977321352944,2.5752410895901963
10.36725308,0.8489369472901961,0.527592433847745,0.07631809893901964,2.608304011472549
10.37720708,0.8426449591647058,0.5905663846320588,0.0913021537056863,2.619116189962745
10.38716108,0.8573358620666667,0.6276049186751961,0.12235743833901963,2.629721223433333
10.39711508,0.8778712662431372,0.647087359685,0.14897902028254906,2.647021402413726
10.40706908,0.8851822148117646,0.6568285801967647,0.1723202338139216,2.6572141779823526
10.41702408,0.8663765976117648,0.6600246109516665,0.18967648103352944,2.65235485982549
10.42697808,0.8213003490882352,0.6559713439908824,0.20231483639235298,2.6536360621784314
10.43693208,0.7531592854803922,0.6440470597751959,0.2094646855766667,2.677898093845098
10.44688608,0.6764458440098039,0.6300718016379412,0.21063249994333336,2.711588709550981
10.45684008,0.5946584510686276,0.6160594881869608,0.20060512881,2.7439387842960787
10.46679408,0.5042677516372549,0.5966504927948039,0.1816004647845098,2.78194766527647
10.47674908,0.404967807382353,0.5693703540300981,0.16011401385117652,2.830314086060784
10.48670308,0.3005020200686274,0.5334950031477451,0.14106001107862748,2.8829463026882354
10.49665708,0.19575560651960786,0.49381311488499996,0.1283472355747059,2.930885207158824
10.50661108,0.09367015763725492,0.4510531835104902,0.12122884670411768,2.9708976147274506
10.51656508,0.0010739773235294184,0.40902372989480384,0.11550993730647062,3.000423684903921
10.52651908,-0.08081718363725489,0.36807853348892156,0.10871839561000005,3.0194309810607844
10.53647308,-0.157558670245098,0.3219332591556862,0.09707477918862749,3.029758973315686
10.54642808,-0.22315819285294117,0.2680941611560784,0.08077387699843139,3.0440575162960783
10.55638208,-0.2666423878607843,0.21057490587568628,0.06520027671411768,3.074387627178431
10.56633608,-0.28405941173411764,0.15072730078549018,0.051996451180784345,3.1176583727862743
10.57629008,-0.29208950763999997,0.09284706591725488,0.04056260075333336,3.1588168578431373
10.58624408,-0.30527461778313725,0.04087330996235293,0.03451509933372552,3.187545783647059
10.59619808,-0.3264459252843137,-0.005430091421960797,0.03491589730372552,3.2035335155294113
10.60615308,-0.3583468491588235,-0.046388713490588256,0.04575741331921571,3.2035924360784316
10.61610708,-0.38980652607647065,-0.0746121571847059,0.06748165245843141,3.1847807361372547
10.62606108,-0.42256932953333337,-0.099502034447451,0.1010314080239216,3.159932167411765
10.63601508,-0.4470872608078431,-0.12445036093764707,0.1586010210141177,3.1445054110392157
10.64596908,-0.4457265449254902,-0.14277121242784316,0.2434988804454902,3.1539374838235297
10.65592308,-0.4142390994549019,-0.15264576091803922,0.34511480077882356,3.1889411683725486
10.66587708,-0.35189598872941175,-0.15515380368274514,0.4343806220356863,3.2472991113137253
10.67583208,-0.2817801598862745,-0.15997873113372552,0.4791381915709804,3.3034095372549017
10.68578608,-0.22461438884705878,-0.1826246878003922,0.4788545313945099,3.3304128404313724
10.69574008,-0.17435246833725487,-0.22262614358470592,0.47046343440823535,3.3438343070784313
10.70569408,-0.13903088318039214,-0.2577311295180392,0.4767026069768628,3.353519135960784
10.71564808,-0.1207961720627451,-0.24662052549843141,0.4991396790219609,3.3809899829019603
10.72560208,-0.12461074076862744,-0.16950409765529414,0.5233893349062745,3.454354068941177
10.73555679,-0.17349413719999998,-0.05721203573372551,0.49337185079450985,3.555132260019608
10.74551079,-0.25829296372941174,0.06417620706274507,0.4309160321043138,3.6801571919215688
10.75546479,-0.36152976090196076,0.19891222153333332,0.4072348201749019,3.7944287510980397
10.76541879,-0.48296388715294114,0.3066483393764705,0.3775099949454902,3.8949561891960784
10.77537279,-0.5997160589686275,0.35096302245882344,0.32064570807294124,3.991785485019608
10.78532679,-0.6644499815372549,0.34125714892941167,0.259988848347451,4.050848474411764
10.79528079,-0.6608921342627451,0.29395136281176465,0.20376751444549024,4.0726448155882355
10.80523579,-0.6235255083607844,0.21477267933921565,0.1533209021709804,4.099735711313725
10.81518979,-0.5868871187921568,0.11650596672745095,0.1211563433964706,4.1401083533137255
10.82514379,-0.5591599890666666,0.016213686903921533,0.10571165415725492,4.169114231882353
10.83509779,-0.5334312312686275,-0.08236922248823533,0.09540792290235298,4.180574906411765
10.84505179,-0.5042528684705881,-0.1748043120176471,0.08405711298078435,4.172377485196079
10.85500579,-0.4734301367764705,-0.2570890593745099,0.06325304070627455,4.144842767352941
10.86496079,-0.4463967046411764,-0.31581946792352944,0.024110311588627486,4.131317036882352
10.87491479,-0.43955109984705876,-0.3426099769039216,-0.03776507062705879,4.15307619372549
10.88486879,-0.46612355927450977,-0.3400639042960785,-0.10949284496235291,4.198026099431372
10.89482279,-0.5272745259411764,-0.3172698296333334,-0.18293162639372545,4.223497500117648
10.90477679,-0.6051761717843137,-0.28848583285882357,-0.22853274133490195,4.212842692588235
10.91473079,-0.6748301279019607,-0.2694322449803922,-0.23774461684666667,4.198603353588235
10.92468479,-0.719935231290196,-0.2747222668333334,-0.20811333845450983,4.232681265901961
10.93463979,-0.7310689862764705,-0.29255790261764714,-0.17713574153294115,4.268554647862745
10.94459379,-0.7017561518411766,-0.2985976750882353,-0.16120575919372546,4.26264049727451
10.95454779,-0.6457287305119607,-0.2903288408137255,-0.15101199858784312,4.229851690764706
10.96450179,-0.5801637523609804,-0.26977955810784315,-0.13510313214274508,4.184814344411765
10.97445579,-0.5093083367237254,-0.23901843429019612,-0.11454792482509801,4.126265987313726
10.98440979,-0.4307081363570588,-0.19696449115294123,-0.09760953066470585,4.052582536211765
10.99436479,-0.3521835800394117,-0.14913557413529416,-0.09586436322745094,3.97844021404902
11.00431879,-0.27897542111,-0.10965108099215691,-0.11233861817450978,3.9215574533039215
11.01427279,-0.20590793787274508,-0.0820538626196079,-0.13939557673921565,3.8811354024411764
11.02422679,-0.13430291922568627,-0.06913527660000005,-0.1653394318180392,3.858679534911765
11.03418079,-0.06846245122568627,-0.06449431860000004,-0.18673243335294115,3.8500731101666665
11.04413479,-0.005879553049215681,-0.05551378644313731,-0.20416475027666664,3.845841734147059
11.05408879,0.05045965099,-0.03030876718823535,-0.21695835493941173,3.8350071669509807
11.06404379,0.09623217678215686,0.011876612182352886,-0.22431744272176468,3.8130323619705884
11.07399779,0.12280978118098039,0.06572726703921562,-0.22668869504137254,3.780797309284314
11.08395179,0.13697908377901963,0.11898533526078425,-0.2227543658923529,3.7456639856568628
11.09390579,0.15067713805941177,0.16323360084901956,-0.21421014924921566,3.718032970245098
11.10385979,0.16774001127235294,0.1995422991941176,-0.20296581740039216,3.7008867444215685
11.11381379,0.19024075348215688,0.22496930627921563,-0.193792820137647,3.6985356537745098
11.12376879,0.2033974229429412,0.2296473654292156,-0.18573815447098038,3.710671784656863
11.13372279,0.20840096563509802,0.218251738307647,-0.1776417241964706,3.7175785987549017
11.14367679,0.2034868480664706,0.19195565154882346,-0.18447522754941179,3.7018267676176473
11.15363079,0.17407711322333333,0.14802330757627444,-0.2163592460788235,3.645635496852941
11.16358479,0.11564898279196077,0.09157478066647051,-0.2683026567062745,3.551149700794118
11.17353879,0.030865227184117647,0.033605507613529345,-0.3232384860003921,3.434886288754902
11.18349379,-0.05549897350215685,-0.01049353932764713,-0.36212824851215686,3.3314258187352945
11.19344779,-0.1268140462080392,-0.028027504641372623,-0.37873886539843127,3.2609723090686273
11.20340179,-0.18712694777666664,-0.01688865054333341,-0.39149808183941176,3.2140471374607844
11.21335579,-0.22872822471784313,0.001617133488039138,-0.41363672948450975,3.184035427794118
11.22330979,-0.2441414937766667,-0.014227731747254975,-0.44347516267666665,3.152985463578432
11.23326379,-0.2248501592668627,-0.08419877033549027,-0.4701364352982353,3.094594663715686
11.24321779,-0.15368547179627448,-0.17855431478647066,-0.44828037871,3.0198588955588237
11.25317279,-0.04093358944333331,-0.26223207527666675,-0.39834778254921566,2.9343047629117645
11.26312679,0.09721672314490198,-0.3311160132962746,-0.3865801893903921,2.856246545735294
11.27308079,0.26511077271352945,-0.35550951927666674,-0.3693877587943137,2.7844503775588234
11.28303479,0.45066685881156865,-0.31166484914333337,-0.33369298370215683,2.7171349005196075
11.29298879,0.6136181251252941,-0.21518204177078437,-0.3058556855472549,2.6727745748333334
11.30294279,0.7296551509488235,-0.09322966877078438,-0.2873140142433333,2.645707957813725
11.31289779,0.8088000466939216,0.034914332346862684,-0.2664836753727451,2.6023137597745096
11.32285179,0.8685169092037255,0.1500320669547058,-0.24602400266686275,2.5429905607549017
11.33280579,0.9178296288507843,0.23741773035078426,-0.23059857484529409,2.4856309537156864
11.34275979,0.9531629342292158,0.2955625001233333,-0.2116651185903921,2.433511633637255
11.35271379,0.9735009705115686,0.3307227594468627,-0.18056539512372546,2.3897986894666667
11.36266779,0.9784411296703921,0.3358163492586274,-0.13263842832568626,2.3456657080274512
11.37262179,0.9759256965507843,0.3132777176703921,-0.06716839432568626,2.278512888609804
11.38257679,0.9770593240521569,0.27524789713254894,0.01179957155862748,2.191105019319608
11.39253079,0.982657923405098,0.23733773814823522,0.08414501537235297,2.1131023433
11.40248479,0.9878962977384314,0.22338893005019606,0.1345366523566667,2.0741905887117644
11.41243879,0.9853931735031373,0.2404205622266666,0.15293368533705887,2.0828620546333334
11.42239279,0.965122662522745,0.28880566409137254,0.1317804196429412,2.119950674201961
11.43234679,0.922205329267843,0.3731338413462745,0.07284813024098041,2.1469202353588237
11.44230079,0.8476227722678431,0.478106863150196,0.01497243556647061,2.1930417374960784
11.45225579,0.7419124767541178,0.569709389405098,-0.023872727590392138,2.270715662201961
11.46220979,0.618714987915098,0.6360640856207842,-0.06010130760215684,2.362264601456863
11.47216379,0.5127834010778431,0.66740712206,-0.09671059869235292,2.4368992518882355
11.48211779,0.4553093585386274,0.6775506424717647,-0.13095342988843137,2.472630000692157
11.49207179,0.43606552691117645,0.6826487036835294,-0.150177695562549,2.4802360314215686
11.50202579,0.44493993639549023,0.6915544717268626,-0.1274914303743137,2.4804500761117647
11.51198079,0.4649678180150981,0.7001230732641176,-0.07666876472725488,2.4852029074647057
11.52193479,0.46457081930137256,0.7011236235778431,-0.0205968930998039,2.481080002954902
11.53188879,0.436785625852353,0.6976804505190196,0.036462610508039235,2.4828770993078435
11.54184279,0.39063699512686273,0.6847941503033332,0.09668223323352942,2.4996597622490198
11.55179679,0.3290555472837255,0.662866105597451,0.15804048225117648,2.5265619174058824
11.56175079,0.2554119527935294,0.6293664211268627,0.21120808199039218,2.5604252774843137
11.57170579,0.17640131657784314,0.5783996932856863,0.24894524364137255,2.606744160229412
11.58165979,0.0999782510092157,0.5143938121150979,0.2717228916394118,2.6646910182490195
11.59161379,0.025599549715098063,0.44523779512882344,0.2799473429747059,2.7311698701509806
11.60156779,-0.04618758248098038,0.37667646291313717,0.27370492003450986,2.798878862817647
11.61152179,-0.11492692085941174,0.30947883896019607,0.2558214158992157,2.863526225856863
11.62147579,-0.1782763259398039,0.24241859016921563,0.22409424892666668,2.918812146347059
11.63142979,-0.2362342556790196,0.1713824067133333,0.17518280306588238,2.9634675532294117
11.64138479,-0.2917559931692157,0.09509605419568622,0.11159862079137256,2.999887530739216
11.65133879,-0.3472432062868627,0.018419635072156815,0.04115548259529413,3.0319942286607846
11.66129279,-0.4014938594045098,-0.060018745033725535,-0.025355804365490182,3.0678842656215686
11.67124679,-0.4541130032280392,-0.14272579894745102,-0.07882133120862744,3.108501866092157
11.68120079,-0.5082172552672549,-0.2174235317768628,-0.11399204385568626,3.137260397229412
11.69115479,-0.5569227214829412,-0.2677248579337255,-0.12798422454,3.132495564307843
11.70110879,-0.5965136368162746,-0.29771667162431376,-0.12349591613607842,3.109724855113726
11.71106379,-0.6268993020378432,-0.31350959983019616,-0.10853448780098038,3.0947462521137252
11.72101779,-0.6478462341005882,-0.3155147935164706,-0.09051725870490193,3.090997264898039
11.73097179,-0.6617195070613726,-0.30307006126156866,-0.07117618272843135,3.1002725849176467
11.74092604,-0.6675468966300001,-0.27295536432039225,-0.04175512751862745,3.1292694647411765
11.75088004,-0.6615790191005883,-0.22841676728117652,0.008952108622549027,3.1816224925058822
11.76083404,-0.6400575221398039,-0.1767799141439216,0.09146514961862745,3.2584448356039215
11.77078904,-0.5969979668260784,-0.12457424157529416,0.19673198542058823,3.356585460290196
11.78074304,-0.5374637037084314,-0.08184141377137255,0.31001864723627454,3.4628261261137254
11.79069704,-0.4787737498652942,-0.06172434349686277,0.418770128340196,3.554546879564706
11.80065104,-0.43932037880647057,-0.06882316139882355,0.5120036494401962,3.6155163116627453
11.81060504,-0.4281259474927451,-0.09514270582627453,0.5880455525284314,3.6436529615254907
11.82055904,-0.44701369227705884,-0.11663990245372552,0.6442107302460783,3.6451660319960784
11.83051304,-0.49481501559862745,-0.10692092429686274,0.6812760453833333,3.6467510112509802
11.84046804,-0.5672999814417647,-0.060201831751764724,0.7040853457362745,3.691161023898039
11.85042204,-0.6619913796378432,0.00776172012274508,0.7051373157245099,3.772480056917647
11.86037604,-0.77126206913,0.06711195646588235,0.6812390115911765,3.871629764637255
11.87033004,-0.887089949512353,0.10448072059921568,0.6485212030284313,3.9789971159000004
11.88028404,-0.9996494831947058,0.11756156113058822,0.6219345913421568,4.0866797010431375
11.89023804,-1.104209850672549,0.10639547735274509,0.604128342104902,4.19057260445098
11.90019304,-1.1893686299313726,0.06822328284686274,0.5872474305264705,4.2794322942745096
11.91014704,-1.2428356816568629,-0.0016055308394117742,0.5674754950127451,4.3388811858627445
11.92010104,-1.2638250533431372,-0.09794799356490197,0.5462995527186274,4.367732310686275
11.93005504,-1.2528490900686275,-0.2082433001139216,0.5220835957284313,4.368806488862745
11.94000904,-1.2120730444411765,-0.32707463578058826,0.4985840401696079,4.346468677862745
11.94996304,-1.1396862458921568,-0.4492779231139216,0.47827261302058827,4.300768830215686
11.95991704,-1.0407984801666665,-0.5502307663296078,0.46375015866764707,4.232826434843138
11.96987204,-0.9277783503490196,-0.615127912192353,0.46165372547156863,4.146610262803922
11.97982604,-0.8285824816764706,-0.6362886531511766,0.4642463350401961,4.073423011450981
11.98978004,-0.7734182770607844,-0.6253272677825491,0.4652324163735294,4.0461082500000005
11.99973404,-0.7589033588803921,-0.6056405640315686,0.452839125295098,4.058389185196079
12.00968804,-0.7745897796160784,-0.5931525279807843,0.40862901851862743,4.077034844825491
12.01964204,-0.8049461826062745,-0.5843465065568627,0.3484446166754902,4.077149143668628
12.02959704,-0.8255535146984314,-0.5705520764078432,0.28775897087156865,4.077940783962745
12.03955104,-0.8316944612160785,-0.5536115002901961,0.226664154695098,4.067729152178432
12.04950504,-0.824030208974902,-0.5265284241725491,0.16302591720490195,4.037538837217647
12.05945904,-0.7997207323494117,-0.489191051545098,0.09979842655784314,3.989820977256863
12.06941304,-0.752012824029804,-0.4395421944,0.0483597911617647,3.9303683143745096
12.07936704,-0.6823152473827451,-0.3716162710707843,0.010754696328431365,3.8716279148254906
12.08932204,-0.599397100402353,-0.2930423158001961,-0.015891251706862754,3.8205570402176474
12.09927604,-0.5088300386180392,-0.21274164336294116,-0.03504498748529413,3.7726340096490194
12.10923004,-0.4201557635396078,-0.13661982691196078,-0.04923428526078432,3.7239000146686276
12.11918404,-0.33836396799058827,-0.0664541448291961,-0.061060565545098054,3.6726839144137253
12.12913804,-0.2654469989709804,-0.005645888060568638,-0.06858644515294118,3.62252624982549
12.13909204,-0.20046340314745098,0.04634476750217646,-0.06905290104901962,3.576364279492157
12.14904604,-0.13967176510823529,0.09951701922766666,-0.062065409549019616,3.531943597511765
12.15900104,-0.08158191330431372,0.15196713981590193,-0.0471389928509804,3.489961204903922
12.16895504,-0.030228578461176468,0.19301271340413723,-0.02533737340980393,3.4512881166490197
12.17890904,0.02019218998980393,0.2413437227962941,-0.004029281903921577,3.4088464210019604
12.18886304,0.07333853051921568,0.29621002755315684,0.010920039247058816,3.372546356237255
12.19881704,0.11261351848392159,0.31598316691198036,0.015959630450784305,3.3596520880019605
12.20877104,0.13679177813686275,0.30632494246923525,0.014289585403725482,3.359435963972549
12.21872604,0.14679344050941176,0.27774485301237256,0.0138733209762745,3.354216693835294
12.22868004,0.13689061757803922,0.23192875399276472,0.01907854960372548,3.3430010714431373
12.23863404,0.1067129254839216,0.1684845494947255,0.030442578839019598,3.323617496305882
12.24858804,0.06418134508392158,0.08867591451825489,0.04158659225078431,3.2878640263058823
12.25854204,0.016639987840784326,-0.0020084039895882453,0.044545122858627446,3.2345465185607845
12.26849604,-0.03870790389843136,-0.09879720416605885,0.029362793035098044,3.1615011457372546
12.27845004,-0.11121336652588235,-0.19602057857978433,-0.005231387023725476,3.0635891273450984
12.28840504,-0.1970158618788235,-0.27903562024449025,-0.058257561533529394,2.9452761385411765
12.29835904,-0.2829896118592157,-0.3346633815091961,-0.12234592282764704,2.82621571632549
12.30831304,-0.35098931042784315,-0.3538143197837059,-0.1865327265923529,2.733052986227451
12.31826704,-0.3892832244670588,-0.3403238416699804,-0.24183035952372547,2.6795252754039214
12.32822104,-0.3925069033886274,-0.3141859392778235,-0.2780332347237255,2.6683047098156862
12.33817504,-0.35924397955725484,-0.29868891459154906,-0.28866395430607844,2.678416250737255
12.34813004,-0.2923396221298039,-0.30127916233664714,-0.2728896368727451,2.666790006521569
12.35808404,-0.19382302705137255,-0.30475050521900005,-0.22694790440999998,2.637931711854902
12.36803804,-0.07324553795333333,-0.2891725596503726,-0.1519407850962745,2.6042368446980393
12.37799204,0.06349835590941176,-0.253088073356255,-0.07269537456686276,2.5678825499725493
12.38794604,0.21053314294862743,-0.19844507492684318,-0.01277369329235294,2.5333982807764706
12.39790004,0.361749159262353,-0.12451789047390201,0.031189307001764706,2.506179721992157
12.40785404,0.5021342690858823,-0.02553081235625494,0.06946486249588235,2.490196338247059
12.41780904,0.6234226448898039,0.09484256019276466,0.10344243359392157,2.4889084899529412
12.42776304,0.7293434430466667,0.22822896848688232,0.13336746148215686,2.5016139539137257
12.43771704,0.826891572987843,0.36279496656531374,0.15969361124376472,2.523663901619608
12.44767104,0.9248275280858822,0.4884078914672745,0.17916599877317646,2.5419782306000003
12.45762504,1.0208631151643137,0.5911734518006078,0.19403633952611768,2.545905549815686
12.46757904,1.097912118007451,0.6542371286888432,0.210298581304549,2.539968306894118
12.47753404,1.1475816260133334,0.677199499973157,0.23019141661043138,2.5397931188549023
12.48748804,1.1744050752035293,0.6725365633280589,0.2560255160139608,2.5461554647960787
12.49744204,1.1891514879407843,0.6550565987633529,0.28878108067278435,2.543863136443137
12.50739604,1.1979441202447059,0.6351936301221764,0.33001702412768635,2.5265974172313728
12.51735004,1.2036337484196078,0.6243638185700195,0.3743520004884706,2.5003600411686273
12.52730404,1.209429280347451,0.6345567307559019,0.41487804610219603,2.476918987607843
12.53725804,1.2122129677435294,0.667121995763745,0.4477903720296471,2.4619741026470585
12.54721304,1.2119267121415687,0.7255181728813921,0.4659269445139608,2.4623047451960787
12.55716704,1.2034529358219608,0.7993990840774705,0.4643155522002353,2.4828242186666665
12.56712104,1.1708295956278432,0.8771957724108039,0.43958025639631376,2.5340694718235297
12.57707504,1.1021094111709804,0.9440774976774706,0.39093377251788236,2.616982690941177
12.58702904,1.0051486555435296,0.9938498571913921,0.31854751284141175,2.7137525693725486
12.59698304,0.9114785968180391,1.018559204528647,0.24182465994337252,2.7894376775882352
12.60693804,0.8406601504847058,1.0087217915894313,0.2050888855512157,2.8072316125882355
12.61689204,0.791496741210196,0.971952298256098,0.2032589621512157,2.80624327672549
12.62684604,0.7544658393670588,0.9201819795458823,0.222666088739451,2.8228177769411764
12.63680004,0.7172915639337255,0.8631210771890195,0.24688545087866667,2.8558357111764705
12.64675404,0.6745878661454902,0.8144659486066665,0.2666016486747451,2.8890970310980393
12.65670804,0.6240519147337256,0.7763908178811764,0.28228033833043137,2.9123437997647055
12.66666204,0.5665349782827451,0.7516228607831372,0.2981230194551373,2.923310023941177
12.67661704,0.5117844684592157,0.7472667997831374,0.31999348556101964,2.9246608113137254
12.68657104,0.45690757565529416,0.7323874474498039,0.3529254390747451,2.938476238254902
12.69652504,0.4030117453415686,0.6917322500262744,0.39003224796298036,2.9681515689803923
12.70647904,0.36333014943568626,0.6500765137458823,0.4217829822298432,3.008191340137255
12.71643304,0.3347222326788235,0.6065885925654902,0.4388821612102353,3.054038423341176
12.72638704,0.31372919072588235,0.5605310035419607,0.4357330744298431,3.096011954537255
12.73634204,0.2984877638768627,0.5103539479145098,0.4113974730906274,3.130416217792157
12.74629617,0.2945715739964706,0.45628467598117645,0.36137159664160784,3.1556404799882354
12.75625017,0.29189433028862743,0.40189575627137253,0.2854496488965098,3.173000361262745
12.76620417,0.2843054501552941,0.3454577314262745,0.1849557318572941,3.1893947673411764
12.77615817,0.2670512830611765,0.28843388436745093,0.06751399272003922,3.2064230133803924
12.78611217,0.2379247913690196,0.22917485313411762,-0.05385627849564707,3.2284289247529414
12.79606617,0.19631454727882355,0.1657733677007843,-0.16647914377015688,3.2606712328509806
12.80602117,0.14437121118078433,0.10250699880862743,-0.2610009899074118,3.2965934586352943
12.81597517,0.08216566192588236,0.04814270618117644,-0.3309150210250589,3.317583881007843
12.82592917,0.020387340631764707,0.016265887751372513,-0.37546032660349016,3.313538906498039
12.83588317,-0.024981280132941173,0.00893847810431369,-0.3985571867172157,3.303068279772549
12.84583717,-0.04248179164078431,0.023380000123921534,-0.40211281549760786,3.311666788203922
12.85579117,-0.03121508989176471,0.05913690475137251,-0.3829052480858431,3.353746337184314
12.86574617,0.005167770637647069,0.09919818559450977,-0.32409240812505885,3.4299052229882356
12.87570017,0.05971457377490196,0.13037203112392154,-0.22901245098780398,3.533430430262745
12.88565417,0.11695325155921568,0.14866683384941173,-0.13686278583094116,3.6292416582431377
12.89560817,0.1578414576572549,0.14729286430039212,-0.05949759908584313,3.694901268458823
12.90556217,0.16839120763764703,0.12837232924156858,-0.0017935144583921558,3.720429393811765
12.91551617,0.15265396557882352,0.10627658410431369,0.03988966075337255,3.717086106890196
12.92547117,0.10644084206039217,0.09426239035921564,0.04878061871415686,3.693321390556863
12.93542517,0.020017756472156863,0.09136976131999996,0.00937362125729412,3.6880719928117642
12.94537917,-0.10020004574352942,0.08556928898666663,-0.04808152246509804,3.7023980059882353
12.95533317,-0.24852670341019606,0.08203110439843132,-0.09679631128862747,3.729900075929412
12.96528717,-0.4213934659396078,0.08802834126117642,-0.13511267978666666,3.7797024808705886
12.97524117,-0.5964170943317647,0.0899602039886274,-0.17481990597686273,3.8533656526549023
12.98519517,-0.7462775512141175,0.0734051313513725,-0.21699378008666664,3.9333579357921566
12.99515017,-0.8506149004298039,0.03595280935921563,-0.26025904847058823,4.001141449929412
13.00510417,-0.9087761857239215,-0.01697905300745103,-0.30573107467843136,4.05988036712549
13.01505817,-0.9313973691101961,-0.07687347021137259,-0.35416810497647055,4.11987714874902
13.02501217,-0.9284918102631372,-0.14085329114352946,-0.40352782878823523,4.1842076208117644
13.03496617,-0.9081266761419609,-0.21059174813960788,-0.4515642675,4.246957720803922
13.04492017,-0.8734353606556863,-0.28653481176705886,-0.4949590603098039,4.299907406843137
13.05487517,-0.8260988594596078,-0.3704166859631373,-0.5293309200490196,4.333759048098039
13.06482917,-0.7615590873811765,-0.44433774804156867,-0.560211840127451,4.350846207470588
13.07478317,-0.6754639589498039,-0.4986977412476471,-0.5936980502058823,4.360710631078431
13.08473717,-0.5791525437929411,-0.5402576061300001,-0.6248516827156863,4.359366204294117
13.09469117,-0.48752347001450985,-0.5755977074594117,-0.6401188889117647,4.3398577105294125
13.10464517,-0.4288117238276471,-0.596438766222157,-0.6482761216372549,4.326222351627451
13.11459917,-0.4142869133884314,-0.5870505684907843,-0.6852929292450981,4.355899792058824
13.12455417,-0.42564494062372554,-0.5476530956750981,-0.740338333645098,4.392540655607843
13.13450817,-0.44224838964333335,-0.49280592622803926,-0.7976934770725489,4.400220844372549
13.14446217,-0.4430380131217648,-0.4294279099176471,-0.8430326267294117,4.374248117019608
13.15441617,-0.41830073672176477,-0.3690114739333334,-0.8705661964352941,4.33161922890196
13.16437017,-0.3755660830943137,-0.3226467455843138,-0.8732980155890196,4.293983861
13.17432417,-0.32412437217274503,-0.2954128686058824,-0.7668028202156864,4.354468220058823
13.18427917,-0.28463104801588235,-0.2812040199196079,-0.6476757874294119,4.44148034072549
