Time (s),Linear Acceleration x (m/s^2),Linear Acceleration y (m/s^2),Linear Acceleration z (m/s^2),Absolute acceleration (m/s^2)
0.008266500023,0.34613958507781817,-0.4167543341401818,-1.0644150389540001,2.2175976954345455
0.01828650001,0.34613958507781817,-0.4167543341401818,-1.0644150389540001,2.2175976954345455
0.0283065,0.34613958507781817,-0.4167543341401818,-1.0644150389540001,2.2175976954345455
0.03832649998,0.34613958507781817,-0.4167543341401818,-1.0644150389540001,2.2175976954345455
0.04834649997,0.34613958507781817,-0.4167543341401818,-1.0644150389540001,2.2175976954345455
0.05836650002,0.34613958507781817,-0.4167543341401818,-1.0644150389540001,2.2175976954345455
0.0683855,0.34613958507781817,-0.4167543341401818,-1.0644150389540001,2.2175976954345455
0.07840549998,0.34613958507781817,-0.4167543341401818,-1.0644150389540001,2.2175976954345455
0.08842550003,0.34613958507781817,-0.4167543341401818,-1.0644150389540001,2.2175976954345455
0.09844550001,0.34613958507781817,-0.4167543341401818,-1.0644150389540001,2.2175976954345455
0.1084655,0.34613958507781817,-0.4167543341401818,-1.0644150389540001,2.2175976954345455
0.1184855,0.34613958507781817,-0.4167543341401818,-1.0644150389540001,2.2175976954345455
0.1285045,0.34613958507781817,-0.4167543341401818,-1.0644150389540001,2.2175976954345455
0.1385245,0.34613958507781817,-0.4167543341401818,-1.0644150389540001,2.2175976954345455
0.1485445,0.34613958507781817,-0.4167543341401818,-1.0644150389540001,2.2175976954345455
0.1585645,0.34613958507781817,-0.4167543341401818,-1.0644150389540001,2.2175976954345455
0.1685845,0.34613958507781817,-0.4167543341401818,-1.0644150389540001,2.2175976954345455
0.1786045,0.34613958507781817,-0.4167543341401818,-1.0644150389540001,2.2175976954345455
0.1886245,0.34613958507781817,-0.4167543341401818,-1.0644150389540001,2.2175976954345455
0.1986435,0.34613958507781817,-0.4167543341401818,-1.0644150389540001,2.2175976954345455
0.2086635,0.34613958507781817,-0.4167543341401818,-1.0644150389540001,2.2175976954345455
0.2186835,0.34613958507781817,-0.4167543341401818,-1.0644150389540001,2.2175976954345455
0.2287035,0.34613958507781817,-0.4167543341401818,-1.0644150389540001,2.2175976954345455
0.2387235,0.34613958507781817,-0.4167543341401818,-1.0644150389540001,2.2175976954345455
0.2487435,0.34613958507781817,-0.4167543341401818,-1.0644150389540001,2.2175976954345455
0.2587625,0.34613958507781817,-0.4167543341401818,-1.0644150389540001,2.2175976954345455
0.2687825,0.34613958507781817,-0.4167543341401818,-1.0644150389540001,2.2175976954345455
0.2788025,0.34613958507781817,-0.4167543341401818,-1.0644150389540001,2.2175976954345455
0.2888225,0.34613958507781817,-0.4167543341401818,-1.0644150389540001,2.2175976954345455
0.2988425,0.34613958507781817,-0.4167543341401818,-1.0644150389540001,2.2175976954345455
0.3088625,0.34613958507781817,-0.4167543341401818,-1.0644150389540001,2.2175976954345455
0.3188815,0.34613958507781817,-0.4167543341401818,-1.0644150389540001,2.2175976954345455
0.3289015,0.34613958507781817,-0.4167543341401818,-1.0644150389540001,2.2175976954345455
0.3389215,0.34613958507781817,-0.4167543341401818,-1.0644150389540001,2.2175976954345455
0.3489415,0.34613958507781817,-0.4167543341401818,-1.0644150389540001,2.2175976954345455
0.3589615,0.34613958507781817,-0.4167543341401818,-1.0644150389540001,2.2175976954345455
0.3689815,0.34613958507781817,-0.4167543341401818,-1.0644150389540001,2.2175976954345455
0.3790005,0.34613958507781817,-0.4167543341401818,-1.0644150389540001,2.2175976954345455
0.3890205,0.34613958507781817,-0.4167543341401818,-1.0644150389540001,2.2175976954345455
0.3990405,0.34613958507781817,-0.4167543341401818,-1.0644150389540001,2.2175976954345455
0.4090605,0.34613958507781817,-0.4167543341401818,-1.0644150389540001,2.2175976954345455
0.4190805,0.34613958507781817,-0.4167543341401818,-1.0644150389540001,2.2175976954345455
0.4291005,0.34613958507781817,-0.4167543341401818,-1.0644150389540001,2.2175976954345455
0.4391230833,0.34613958507781817,-0.4167543341401818,-1.0644150389540001,2.2175976954345455
0.4491420834,0.34613958507781817,-0.4167543341401818,-1.0644150389540001,2.2175976954345455
0.4591620833,0.34613958507781817,-0.4167543341401818,-1.0644150389540001,2.2175976954345455
0.4691820833,0.34613958507781817,-0.4167543341401818,-1.0644150389540001,2.2175976954345455
0.4792020833,0.34613958507781817,-0.4167543341401818,-1.0644150389540001,2.2175976954345455
0.4892220834,0.34613958507781817,-0.4167543341401818,-1.0644150389540001,2.2175976954345455
0.4992420833,0.34613958507781817,-0.4167543341401818,-1.0644150389540001,2.2175976954345455
0.5092610833,0.34613958507781817,-0.4167543341401818,-1.0644150389540001,2.2175976954345455
0.5192810833,0.34613958507781817,-0.4167543341401818,-1.0644150389540001,2.2175976954345455
0.5293010834,0.34613958507781817,-0.4167543341401818,-1.0644150389540001,2.2175976954345455
0.5393210833,0.34613958507781817,-0.4167543341401818,-1.0644150389540001,2.2175976954345455
0.5493410833,0.34613958507781817,-0.4167543341401818,-1.0644150389540001,2.2175976954345455
0.5593610833,0.3737194634269091,-0.38462970210563635,-1.0659049732885455,2.229953395089091
0.5693800834,0.38866776127236363,-0.3849000893183636,-1.1174014865958182,2.27967123834
0.5794000833,0.40971751569418186,-0.39176083475290907,-1.1735862229867273,2.3305304634890907
0.5894200833,0.4399414943305454,-0.3716139103638182,-1.1808551519158181,2.343429627967273
0.5994400833,0.49200778689418184,-0.27313874557290907,-1.0505332493230908,2.491956449318182
0.6094600834,0.6482154061996364,-0.1724488096401818,-0.9126365871612727,2.6968350409145456
0.6194800833,0.7666172759632727,-0.14795896549290907,-0.9519036382958183,2.8133120773054543
0.6294990833,0.8832058909321818,-0.13854916160927272,-1.0413684829721819,2.9572446052
0.6395190833,1.0007883651067273,-0.10248065968927271,-1.0990385290867273,3.066914172225454
0.6495390834,1.0878721318885456,-0.0824385047801818,-1.1789442180503635,3.142462984152727
0.6595590833,1.1419951001794546,-0.0972488083401818,-1.2877490368012727,3.228261295643636
0.6695790833,1.168233528923091,-0.13663070145472725,-1.395680526054,3.3238839770072723
0.6795990833,1.173853683904909,-0.19533305222018177,-1.5013326537085454,3.4299251010981813
0.6896180834,1.1649610177412726,-0.2616856129110909,-1.6020404077085453,3.531483985861818
0.6996380833,1.1265308201176363,-0.31219428165654545,-1.708396263726727,3.6502796406072724
0.7096580833,1.0404720104503635,-0.3499083388892727,-1.8208828402903634,3.78446718548
0.7196780833,0.9529396519358182,-0.3809594035074545,-1.9272002428721817,3.903616570170909
0.7296980833,0.8855020858903636,-0.4195495756347272,-2.024259940272182,4.016559586225455
0.7397180834,0.8211604849830908,-0.47917824230927275,-2.114591831363091,4.141414462461817
0.7497370833,0.7527357242212727,-0.5595823745056363,-2.1945841016285454,4.262668877734545
0.7597570833,0.6796227496576364,-0.6445981099965454,-2.2696866378110907,4.370786736098181
0.7697770833,0.6279601913849091,-0.6983892833510909,-2.3401589499620004,4.448763863916364
0.7797970833,0.5822962969667271,-0.7279628177183637,-2.411246846352909,4.523182155425454
0.7898170833,0.526427478984909,-0.7558115802707273,-2.474166278165636,4.606025648421818
0.7998370833,0.46139226275636364,-0.7903907272509091,-2.503518971174181,4.683762161372727
0.8098560834,0.3920993818327273,-0.8043679700218181,-2.502386142245091,4.7480381581909095
0.8198760833,0.29777815080000003,-0.79722841872,-2.4833568028269086,4.808963093718181
0.8298960833,0.18270158196363637,-0.7856283694487273,-2.4575596634523635,4.866935945009091
0.8399160833,0.07652948267272727,-0.7822170187869091,-2.4227504232123636,4.925391113536364
0.8499360833,-0.016880550163636366,-0.7630678553014545,-2.369885411617818,4.991259409754546
0.8599560834,-0.12629948072727273,-0.7195428351487272,-2.2935960607596364,5.047326132809091
0.8699750833,-0.21208936630909092,-0.6637809587614545,-2.213038619886909,5.102520255281818
0.8799950833,-0.23012287838872728,-0.5813210837487273,-2.152063552061818,5.168545154881818
0.8900150833,-0.23964595413054546,-0.5032259479087272,-2.0804032292072727,5.214008776681818
0.9000350834,-0.2560710433596364,-0.45507398348090905,-2.0239226662254546,5.231777363736365
0.9100550833,-0.2756767707301818,-0.44951519503,-1.9667796137200002,5.203972968681818
0.9200750833,-0.3106305860229091,-0.483229682336,-1.915333466210909,5.1899661453363635
0.9300940833,-0.34779613721018177,-0.5450631426705455,-1.8827565866,5.209757923645454
0.9401140834,-0.3141836519192727,-0.6395599151069091,-1.832297576658182,5.289157278390909
0.9501340833,-0.11595660935563637,-0.7792722919614546,-1.7525306633854547,5.522249746245455
0.9601540833,0.3284441603170909,-0.9496870691614545,-1.6489076896581818,5.982945546118182
0.9701740833,1.013886731426182,-1.1107411398523637,-1.5337518804036363,6.650255072718182
0.9801940834,1.9279583954807273,-1.2432093639432726,-1.5019475243,7.4927643827727275
0.9902130833,2.9680191859716367,-1.3341121133614546,-1.5694184819181818,8.314880637827272
1.000233083,3.928806079098909,-1.3569891053978183,-1.530071161790909,9.165389737063636
1.010253083,4.698550338353454,-1.4301572444341821,-1.4279321901363635,9.8976645419
1.020273083,5.329272225626181,-1.6089186988032727,-1.2868303501545453,10.531908204954545
1.030293083,5.907558692171637,-1.8056121123723636,-1.1387845588454546,11.099052619009091
1.040313083,6.451125725098909,-1.971877567183273,-1.0109169559181819,11.6126829051
1.050332083,6.965885681946182,-2.105163333014182,-0.9192651569,12.093196273045455
1.060352083,7.443141244198909,-2.205440030263273,-0.844564776261818,12.527004013136363
1.070372083,7.8299165022898185,-2.266565621356,-0.7881409405836364,12.88501286999091
1.080392083,8.123168546689818,-2.297872235883273,-0.7629724832072727,13.161054021172728
1.090412083,8.33554824180982,-2.337715391905091,-0.7745405495363636,13.377001070490909
1.100432083,8.446894446546182,-2.3842496364123638,-0.7977960770199999,13.484252881036365
1.110451083,8.473667991204364,-2.426153465521455,-0.8037532947399999,13.505146322745455
1.120471083,8.44353211681891,-2.4344255148596363,-0.7671896014309092,13.475651443145454
1.130491083,8.36694236657709,-2.430121419285091,-0.7221210598727273,13.477135863218182
1.140511083,8.252411919704365,-2.4643028080923632,-0.7174770417309092,13.549479991727274
1.150531083,8.095415949558909,-2.581521557546909,-0.8444391235776364,13.506780551654545
1.160551083,7.812364891068,-2.694692324783272,-0.9686131998449091,13.42548145190909
1.170570083,7.545626426704364,-2.736570448728727,-0.9028384742994545,13.452223229145455
1.180590083,7.268869183558909,-2.7850007877959997,-0.7743364298812727,13.4749641854
1.190610083,6.979598750031636,-2.876530124868727,-0.6735982597358182,13.550588838890908
1.200630083,6.718158761304363,-2.952948735741454,-0.5585056110449091,13.661227546327272
1.210650083,6.4856091183589095,-3.0024095063596365,-0.4210933056630909,13.767175154836364
1.220669083,6.2711262848152725,-3.0444766588323633,-0.28414680542672727,13.877471114636363
1.230689083,6.068040370815273,-3.0874593337960006,-0.12386553197218181,13.982102154472727
1.240709083,5.867391214924364,-3.146623428559636,0.06416987750054547,14.089453331654544
1.250729083,5.671021992288001,-3.2188482841414543,0.26280638993690913,14.205825316290909
1.260749083,5.480932349724363,-3.2886409531596366,0.45131078860963636,14.326981802
1.270769083,5.255539770542546,-3.3731361801596367,0.591873600366,14.490755765399998
1.280788083,4.984258678760726,-3.4842480231778183,0.6881840674569092,14.714870769327273
1.290808083,4.693499554888,-3.6188134255960005,0.7486136378932727,14.983110956454544
1.300828083,4.387823482178909,-3.7797009889414546,0.7827445373114545,15.295332178581818
1.310848083,4.083888274324363,-3.950294621832364,0.819596651166,15.622108324818184
1.320868083,3.782061753178909,-4.1247057796505455,0.8797991423169091,15.948560534672726
1.330888083,3.5017045814334544,-4.28133854468691,0.986014553516909,16.24410179629091
1.340907083,3.2503641109970913,-4.403333836777818,1.1267201489714547,16.510771973290908
1.350927083,3.0207478220334543,-4.497869152977818,1.2684899110987273,16.773278947145453
1.360947083,2.810621429797091,-4.598139721286909,1.3954512806550907,17.029512556345455
1.370967083,2.6155706905425458,-4.710054169061455,1.5022314730896364,17.2704952962
1.380987083,2.4283100902152723,-4.823880967323635,1.5842950610387272,17.494536026036364
1.391006083,2.2386437327607274,-4.940707990538182,1.6321740721114544,17.70760815192727
1.401026083,2.0397782061243634,-5.0669216021927275,1.6435710821478182,17.911739879563637
1.411046083,1.8406915165607272,-5.196185615901818,1.627689305566,18.09724053389091
1.421066083,1.6354616784879998,-5.325877608574546,1.608138778566,18.26959273909091
1.431086083,1.401574296165818,-5.4654095562109095,1.6085677409296364,18.43294375269091
1.44110325,1.161527882216727,-5.601534793756364,1.6333605040750907,18.589916017927273
1.45112225,0.942667365754909,-5.706463099901819,1.678030488784182,18.755467547527275
1.46114225,0.7615640537072726,-5.763993658030909,1.731607026787818,18.934530278036366
1.47116225,0.6123319686545453,-5.765505211121819,1.7833152996605455,19.071979256454544
1.48118225,0.4622494539145454,-5.712375437594546,1.8369138763587274,19.14177031683636
1.49120225,0.24121231678727265,-5.59693157854,1.8927288826714546,19.111779566981816
1.50122125,-0.13878795864909096,-5.409953026649091,1.923891262344182,18.901454435218184
1.51124125,-0.7513342224309093,-5.191940207705454,1.928218978016909,18.47498705209091
1.52126125,-1.5715561933945457,-5.0236026059963645,1.9291391649623635,17.85037878530909
1.53128125,-2.522525574285454,-4.93776583105091,1.922798550635091,17.045234910090908
1.54130125,-3.4938236296454543,-4.92522704586909,1.916758887166,16.125984442072728
1.55132125,-4.334263539518182,-4.925345404141819,1.923627385475091,15.300519369436364
1.56134025,-4.9605180369545465,-4.8641891683236365,1.880159500593273,14.672506555272728
1.57136025,-5.333595102772727,-4.70487298576,1.7533461931932728,14.273203303999999
1.58138025,-5.394584326227274,-4.473746294632727,1.6194694917932728,14.177696826363636
1.59140025,-5.182007674227273,-4.221928850850909,1.5713425481332728,14.362239032727272
1.60142025,-4.838143127681818,-3.997714538741818,1.6626946826787272,14.696168193090909
1.61144025,-4.451881675136363,-3.846389320596364,1.8795119906587272,15.098935301818182
1.62145925,-4.054825624409091,-3.7604416292872727,2.1703579604532726,15.538817628
1.63147925,-3.681177041136363,-3.7020637086236365,2.4784943182769092,15.968400171272725
1.64149925,-3.352396206045454,-3.66762006024,2.763837356462364,16.35495312618182
1.65151925,-3.079102151809091,-3.668636851167273,3.0118044432987277,16.684610583545453
1.66153925,-2.8815037806090906,-3.699980393530909,3.1980181792987272,16.928440726836364
1.67155825,-2.7528329190872727,-3.74764067622,3.310731828498727,17.057760169145457
1.68157825,-2.668927394414545,-3.8016247146581814,3.350328189504182,17.065915148072726
1.69159825,-2.620593034087273,-3.8472702289,3.3158463747459996,17.056544818218182
1.70161825,-2.590536644632727,-3.8817576224272727,3.238338565138182,17.067435961836363
1.71163825,-2.5591658542509093,-3.9081263935909094,3.1442400359327274,17.073418406945454
1.72165725,-2.51846258876,-3.921953578209091,3.0321702462418183,17.0672516858
1.73167725,-2.4670461078872727,-3.9134623021363635,2.893231495969091,17.050418855072728
1.74169725,-2.3912704135963634,-3.8855840111363635,2.7323908805327273,17.01160314529091
1.75171725,-2.304243815232727,-3.8569618054636368,2.575232852150909,16.9641011066
1.76173725,-2.21561585596,-3.822793731027273,2.4316616000963633,16.91023821761818
1.77175725,-2.1225207622145454,-3.7809109040454545,2.3004310720963637,16.84497843187273
1.78177625,-2.0208455172690907,-3.7337055347363637,2.1774987929327274,16.758888843690908
1.79179625,-1.9097793995599996,-3.6739108603000004,2.070210869478182,16.643084234054545
1.80181625,-1.7884350993054545,-3.6004885826636364,1.9825947256781817,16.50270620447273
1.81183625,-1.6458895605781816,-3.521993842790909,1.9260979818654547,16.3389766608
1.82185625,-1.46257739376,-3.4253278437363632,1.9236393446285454,16.131894238345456
1.83187525,-1.235410269632727,-3.3057162594636362,1.9640856382885454,15.874928286345455
1.84189525,-0.9680490981236362,-3.165437526681818,2.032385986254,15.571570599472727
1.85191525,-0.66162537916,-2.9972339909000003,2.098861949774,15.219459428709092
1.86193525,-0.3318205264509089,-2.810960496409091,2.1316516148794546,14.839781267327274
1.87195525,-0.012973568523636186,-2.631558729390909,2.1202659325085453,14.475812821436365
1.88197525,0.27369776687636377,-2.474530315172727,2.0617984271812726,14.150179785763637
1.89199425,0.5269141091490911,-2.341916628303636,1.9617800864903636,13.859141323490912
1.90201425,0.752691573458182,-2.228294817481818,1.827244757381273,13.591247805509092
1.91203425,0.961570541967273,-2.121056397354545,1.6876460451558182,13.335708576636362
1.92205425,1.1538986687672728,-2.018060700972727,1.5685649229594545,13.098745303418182
1.93207425,1.3310512299127275,-1.9215991484745454,1.4809818584521819,12.885136543327272
1.94209325,1.4923992242945459,-1.8271129595145457,1.4235942115976363,12.696190480472728
1.95211325,1.6423393433854547,-1.729701432489091,1.3865114861976364,12.524173576545456
1.96213325,1.7854371889127274,-1.6320803585181818,1.359675501252182,12.363066531727274
1.97215325,1.9182739151127275,-1.5308881640454546,1.329679053724909,12.215733147036364
1.98217325,2.0355128960218183,-1.417613151590909,1.2819310202758183,12.087721538036362
1.99219225,2.1344301262581817,-1.2925458014999998,1.2113137131207274,11.982440869236365
2.00221225,2.20380109944,-1.1708772571545456,1.1308475207025455,11.907900481709092
2.01223225,2.2325072179672727,-1.0668518514636363,1.0606493898094544,11.87211056670909
2.02225225,2.2277065582400004,-0.9844508791727272,1.0095001958040002,11.869192514054546
2.03227225,2.195707596167273,-0.9167135941727274,0.9731969334949091,11.893415578581818
2.04229225,2.1609339388945457,-0.8527146759909091,0.9433564391858181,11.92040296070909
2.05231125,2.132789992949091,-0.7811487856636364,0.9169216077858182,11.94424468650909
2.06233125,2.1198591413127277,-0.6976007916618182,0.8910594420585454,11.962890369054547
2.07235125,2.1124486991309093,-0.5936704351345454,0.8652219515858182,11.989098811218183
2.08237125,2.076738498658182,-0.47500476558909094,0.8610328202403638,12.055452090072727
2.09239125,1.9813604710909092,-0.3545376060981818,0.877986667873091,12.167072004254548
2.10241025,1.791775634527273,-0.23121266780727276,0.883051021073091,12.231953089981818
2.11243025,1.5079244217818184,-0.11142500262545452,0.8921840396949091,12.201184496836364
2.12245025,1.121303429109091,-0.013442231843636356,0.9311519632152728,12.012626140436366
2.13247025,0.5865449077145456,0.05363896899272728,0.9665821724425454,11.569346237236363
2.14249025,-0.06682656273999987,0.09795695132,0.9256498502298182,10.964079168927272
2.15250925,-0.7418577145581817,0.13778311321090908,0.7743354573934546,10.311264891836363
2.16252925,-1.3671205985581818,0.21754415268363636,0.521574719448,9.684725972745454
2.17254925,-1.8680935358309088,0.29802613259272726,0.22333882455709092,9.147613473654546
2.18256925,-2.126882115103636,0.3388900211109091,-0.02388895891563638,8.83366929201818
2.19258925,-2.0613442256490906,0.385850517,-0.17141793084290913,8.849964153654547
2.20260825,-1.61693597674,0.48074979314545446,-0.242456476752,9.249665206563636
2.21262825,-0.7812866374672727,0.6252033209454546,-0.2785597058065455,10.0418875722
2.22264825,0.2989795758418184,0.7939136667272727,-0.3000464585338181,11.082706990054547
2.23266825,1.3940654403509092,0.8882514560181818,-0.3101958162610909,12.124647949818183
2.24268825,2.368043880569091,0.8559848296727273,-0.27273817139745454,12.965951950363635
2.25270825,3.199897632732728,0.7408880507090909,-0.16755944494290909,13.599558403327274
2.26272725,3.9089253362054546,0.5754563504363636,-0.01614504079745453,14.101394093600002
2.27274725,4.5096803707509086,0.374817211890909,0.14804546576618186,14.50692091481818
2.28276725,5.007589601041818,0.1637912893454545,0.30389315440254544,14.815062970163634
2.29278725,5.393681154932727,-0.033526298527272756,0.45452810343890915,15.019256171036364
2.30280725,5.681542366896363,-0.22358285652727275,0.6065321833298183,15.149959913363636
2.31282625,5.895756345569091,-0.40489377401818183,0.7552285571116364,15.231903150709092
2.32284625,6.052166536350909,-0.5664353616181819,0.8977790846570909,15.279939896454545
2.33286625,6.161889367963637,-0.7128558927818182,1.0256136880207274,15.321233727181818
2.34288625,6.2367820263272735,-0.8532282074909091,1.1308862144389091,15.373696495727271
2.35290625,6.28571094218182,-0.9950002260545455,1.217436022784364,15.44265698130909
2.36292525,6.306061867963637,-1.136361103018182,1.2868315701789093,15.53007168370909
2.37294525,6.285592041727273,-1.2742000690363637,1.337408029404909,15.642816508527273
2.38296525,6.228928343963636,-1.4068562386363637,1.367303649672182,15.776378375254545
2.39298525,6.137833104272728,-1.5378870150545456,1.3896823632521818,15.933467051945454
2.40300525,6.0132118224,-1.6773907153818182,1.430490118495818,16.123231573981816
2.41302425,5.855209477327272,-1.8378393547818184,1.4970339947721818,16.353359979181818
2.42304425,5.664029733036363,-2.0213657901636366,1.5766366597558181,16.6209637218
2.43306425,5.450084556181819,-2.221599854872727,1.6482496148467272,16.91121940056364
2.443087583,5.2233065377272725,-2.4267156563054546,1.7095099364285455,17.21070510610909
2.453107583,4.993059993418182,-2.6368367036909093,1.773679372701273,17.514709659363636
2.463127583,4.757837256000001,-2.852229838563636,1.840484396254,17.8280417846
2.473146583,4.525921629381818,-3.072377987527273,1.9043686744503636,18.14268018309091
2.483166583,4.294269680236364,-3.3063513916254545,1.9623609845394547,18.462515781545456
2.493186583,4.052602907127273,-3.554805006749091,2.022249852303091,18.79432127712727
2.503206583,3.801499961127273,-3.8135402142290906,2.0926321678485453,19.13578654869091
2.513226583,3.544257257963636,-4.078383703581818,2.1725904365576363,19.482853159509094
2.523245583,3.278718546490909,-4.350503736618182,2.2581279483576364,19.83293739438182
2.533265583,3.0180666508545455,-4.625895577890909,2.346927852988545,20.16445905829091
2.543285583,2.7834865542545453,-4.897083906236364,2.4422064513072725,20.454317469454544
2.553305583,2.584572729618182,-5.154596899509091,2.540919294798182,20.700451297163635
2.563325583,2.4309674907454544,-5.384878043381819,2.637731559309455,20.90096745270909
2.573344583,2.3172985859818183,-5.58215315390909,2.727560318751273,21.060754994272727
2.583364583,2.228360522272727,-5.753705599981818,2.8123106757149094,21.19332448130909
2.593384583,2.1378724041636366,-5.9109339012909095,2.8968372225149097,21.32451896814546
2.603404583,2.027646733181818,-6.071238125072727,2.9825331061330913,21.469319524472727
2.613424583,1.8949337658727274,-6.245712363672727,3.0771037873512728,21.629088203236364
2.623443583,1.7364253070181819,-6.434898106490909,3.1820929683330905,21.802369866763634
2.633463583,1.5687863571090912,-6.625855699181818,3.287367456224,21.97407962949091
2.643483583,1.405675087127273,-6.802314302054546,3.3778075898967277,22.138681254599998
2.653503583,1.2618683144727272,-6.9552113421454544,3.4569509986240003,22.285529810236362
2.663523583,1.1368819430181818,-7.080775710872727,3.528505609138546,22.412090579
2.673542583,1.003136761509091,-7.196594418963636,3.604307844418182,22.533802953763633
2.683562583,0.80567362054,-7.3244912446727275,3.711294152536364,22.650345092236364
2.693582583,0.5385910953763637,-7.462308605309091,3.8821519680090915,22.692875929818182
2.703602583,0.22483210804909093,-7.589562326329092,4.0842943035,22.677996115454544
2.713622583,-0.12717541985999994,-7.721570262914545,4.275781802772727,22.59263473236364
2.723641583,-0.5245830158236363,-7.839987742096363,4.396964177736364,22.401981141781818
2.733661583,-0.9474394483909091,-7.918773955041818,4.3551546774945455,21.994361255763636
2.743681583,-1.3455604578454545,-7.953689911609091,4.150253633621818,21.598104562854544
2.753701583,-1.7145524249363635,-7.986488815318182,3.9064674734400002,21.221420995399995
2.763721583,-2.1106499574818183,-8.05060634959091,3.72677173504,20.816244063218182
2.773740583,-2.485361649663636,-8.103765189081818,3.678461356258182,20.436828564854544
2.783760583,-2.759829357118182,-8.079712765845455,3.7570210799672727,20.168524223945454
2.793780583,-2.844152160390909,-7.943061557954545,3.8714368004854545,20.08768812158182
2.803800583,-2.7201605705727276,-7.725717835845455,3.922783157285455,20.196292005763635
2.813820583,-2.4798943543909093,-7.467288424445454,3.85721018726,20.397951397945455
2.823839583,-2.2385599902090907,-7.186504958790908,3.6843221812963636,20.586594242854545
2.833859583,-2.0484078569363633,-6.9210964303181814,3.463494959205455,20.727148869036363
2.843879583,-1.9077782380272728,-6.6831062083727275,3.237362824150909,20.823594140854542
2.853899583,-1.7946723561727271,-6.4651668517036365,3.03727420886,20.866065046490906
2.863919583,-1.7138152827181816,-6.2798985041036355,2.876764588350909,20.841858593763636
2.873938583,-1.6699011410090907,-6.123811568703636,2.743795308369091,20.764666887581818
2.883958583,-1.6490630464927272,-5.978471411630909,2.628964944514545,20.657963435527268
2.893978583,-1.6388677562381815,-5.843249063994545,2.5290431679327274,20.545534774981817
2.903998583,-1.6267840598381818,-5.710344834339999,2.4495393581145457,20.42681016063636
2.914018583,-1.6020673051836363,-5.577299277449091,2.393023956361818,20.301904842636365
2.924037583,-1.5520803941290906,-5.450341044194546,2.355813870652727,20.1699575232
2.934057583,-1.4780272577472726,-5.328273570849091,2.3406449281254544,20.03068414029091
2.944077583,-1.387799861801818,-5.2065381822672725,2.334508721816364,19.88299393809091
2.954097583,-1.2799767906200001,-5.08084269764909,2.317361214398182,19.718520430745457
2.964117583,-1.1462928559654544,-4.948776347358181,2.286683489161818,19.528562921745454
2.974136583,-0.9792924540563634,-4.809566012576364,2.2532509705436365,19.309177979563636
2.984156583,-0.7834827567472726,-4.667458313339999,2.231896178852727,19.06884973807273
2.994176583,-0.5713110510927272,-4.527207062521818,2.221591476561818,18.818468612799997
3.004196583,-0.35071322058363613,-4.382126713121818,2.21330403178,18.559182212927272
3.014216583,-0.11052086016545433,-4.226464099449091,2.2103159132163634,18.282944371654544
3.024235583,0.1245395159800002,-4.080710597485455,2.199342066198182,18.014799273290908
3.034255583,0.342995968507273,-3.9464391558490908,2.178642040398182,17.763207705072727
3.044275583,0.5745693736345456,-3.8161887167763635,2.142017372598182,17.50082941432727
3.054295583,0.8278976529800004,-3.680375874758182,2.0897026105618184,17.214506496272726
3.064315583,1.0880129549800004,-3.539728863158182,2.0323078513618182,16.917967959472726
3.074334583,1.3410048812163637,-3.4031005683581816,1.9793510916345456,16.6291491482
3.084354583,1.5815688907436367,-3.281339733594545,1.9336924331254546,16.359189218927273
3.094374583,1.8145076313981823,-3.1778601336309085,1.8938544598527272,16.106903755127274
3.104394583,2.051222493270909,-3.0862379321763638,1.8584802828890912,15.86182616569091
3.114414583,2.2846828267436368,-3.0044997152127273,1.825799817198182,15.62991704930909
3.124433583,2.504344400998182,-2.935909876921818,1.7904941536709091,15.418078868290907
3.134453583,2.707965074743637,-2.8757509687763636,1.7433144536345455,15.217091841672726
3.144473583,2.8943306789436365,-2.815856705612727,1.676128856089091,15.016172380290909
3.154493583,3.0674180431254543,-2.7508562524127274,1.58564921118,14.811171194563636
3.164513583,3.2295505105436364,-2.6729804562672728,1.4708347730145455,14.603914622254546
3.174532583,3.3944045591800003,-2.5793528817545455,1.3421990213672725,14.392050261327272
3.184552583,3.575323482016364,-2.4777734142145458,1.2057352672400001,14.168636353072728
3.194572583,3.767035057198182,-2.372628319887273,1.0647543636072727,13.942273196909092
3.204592583,3.946410825398182,-2.269293180669091,0.9354569729345455,13.739655699672726
3.214612583,4.091157373107273,-2.180684509232727,0.8416981988581819,13.578959582327272
3.224631583,4.210799889070909,-2.1019541930145453,0.7701554209763636,13.450310186709089
3.234651583,4.307461731234546,-2.03659933476,0.6981295195636364,13.339248880454546
3.244671583,4.366442659307273,-1.9923697915600003,0.5937620996,13.233882295109089
3.254691583,4.397905463598182,-1.9605661809763637,0.45920239025454546,13.122478283327272
3.264711583,4.414320096961818,-1.9153896041363636,0.32663928180000007,13.025310535672727
3.274730583,4.43288613358,-1.8417740760090908,0.23800454505454546,12.966556386527273
3.284750583,4.382184947910909,-1.748945620518182,0.25572280449636364,13.004107822
3.294770583,4.155018493621818,-1.6844173917690908,0.3606807772781818,12.840760244163636
3.304790583,3.7017262936218183,-1.6432003367327273,0.4557237168472727,12.435528740236363
3.314809583,3.0500182497309094,-1.5974096932781818,0.5027288190127274,11.832212992509088
3.324829583,2.261818842367273,-1.5743883653872726,0.47811418598181826,11.09090646532727
3.334849583,1.4429512140945457,-1.5541720053145456,0.39612744638727276,10.318236724763636
3.344869583,0.6112849450309094,-1.522186372241818,0.3088493540418182,9.546274965818181
3.354889583,-0.2626916063309088,-1.49085474226,0.2684643046418182,8.7590366222
3.364908583,-1.1259581636963634,-1.4571904665872728,0.31920267594,8.007653717581817
3.374928583,-1.884314700714545,-1.42116709986,0.47580614377636365,7.365245400454545
3.384948583,-2.491198276350909,-1.3666110495690906,0.701593840630909,6.8626335532
3.394968583,-2.925851636685454,-1.2974599343872726,0.9462686872127272,6.497888779345455
3.404988583,-3.210052874474545,-1.2110148310745454,1.16593144694,6.2562596577454554
3.415007583,-3.3734977866072726,-1.1030786800018182,1.3517050523945453,6.130652412618182
3.425027583,-3.409369146970909,-0.9856610720563636,1.5096096001218182,6.097619469454545
3.435047583,-3.348504065281818,-0.8798605101654544,1.6366380850672726,6.109394060945455
3.445065083,-3.2450791101727274,-0.7926955561290909,1.7292473311036365,6.106944830472727
3.455085083,-3.1267454136272725,-0.7304286682781818,1.7779109667581818,6.077418159127273
3.465104083,-2.988344402554545,-0.6960225829327272,1.7878009951527272,6.0468917326
3.475124083,-2.7914281888090904,-0.6899756689145454,1.7761280789436364,6.069593971836363
3.485144083,-2.4890343282818184,-0.701272792550909,1.753680206090909,6.185717572381819
3.495164083,-2.038103935681818,-0.701728673369091,1.7321565760345454,6.425103632945454
3.505184083,-1.4367063984999995,-0.679701239241818,1.7026729359729094,6.804843156654545
3.515203083,-0.7089930242454544,-0.6571464606781818,1.6454826379547272,7.321120669654546
3.525223083,0.09756657657272737,-0.6498256403509092,1.5517781791910907,7.934520662927272
3.535243083,0.9206046516272729,-0.6673842548600001,1.4155485103729089,8.578085396418182
3.545263083,1.7191531310636365,-0.7378534201509092,1.2610493544456365,9.2071308526
3.555283083,2.4601263212818183,-0.8782735599145454,1.1448985351365455,9.790806032290911
3.565302083,3.112592865954546,-1.059653099769091,1.1109153151110909,10.31387561629091
3.575322083,3.7066747709,-1.236081031369091,1.1266025920383635,10.760276845927272
3.585342083,4.253194870918182,-1.378935037369091,1.134979552383818,11.103054162327274
3.595362083,4.719085705063637,-1.4873470402599998,1.1137041711838183,11.344262852527272
3.605382083,5.094466382445454,-1.5680473020963634,1.0555359848256365,11.498114244945455
3.615401083,5.387220023554545,-1.6174405931872728,0.9616825656074546,11.569183353563636
3.625421083,5.614216876754545,-1.6280254993690908,0.8478179438256364,11.556062406854545
3.635441083,5.780870528209092,-1.6000325338418182,0.7379864656256364,11.47497431970909
3.645461083,5.878257116863636,-1.5433399454963637,0.6500921405347273,11.368634955927273
3.655481083,5.9022419276818185,-1.474474783078182,0.5890618962747273,11.297316108909088
3.665500083,5.86271241099091,-1.4117804743872726,0.5492800748747273,11.283094918
3.675520083,5.7832582759181825,-1.3589076275327272,0.5258679403474545,11.310227646981819
3.685540083,5.682266155881818,-1.3214596398781817,0.518851770602,11.37034607709091
3.695560083,5.571086963572728,-1.3034936604781817,0.5335755327110908,11.462059575745455
3.705579083,5.459105639572727,-1.3006065818054542,0.5742055751292727,11.574729933836364
3.715599083,5.3595305976090915,-1.31258789346,0.6372010526401818,11.688585355054544
3.725619083,5.268569322790909,-1.341012097790909,0.7151265182329091,11.798490208709092
3.735639083,5.170335897772727,-1.3841251071854546,0.8016210198874545,11.914874780236364
3.745659083,5.0651750425909094,-1.4384237231854544,0.8930606340838182,12.033331575490909
3.755678083,4.966752167845455,-1.4988348190763634,0.9809807719565454,12.138706833636366
3.765698083,4.884023251772728,-1.5539436358945455,1.050169365123818,12.22811334098182
3.775718083,4.802173480536364,-1.6084602759545454,1.1075365573692728,12.313604106418182
3.785738083,4.7172953087545455,-1.6566710314763635,1.1518344678001817,12.401675855218182
3.795758083,4.630105838936364,-1.6935738167799999,1.1803798676365456,12.491525945472729
3.805777083,4.54141855699091,-1.732829433943636,1.2066690130001818,12.58280886089091
3.815797083,4.443619654627272,-1.7927606382163634,1.235334020272909,12.681229602000002
3.825817083,4.316072138881818,-1.878803655089091,1.268198891200182,12.80134091681818
3.835837083,4.1544335593,-1.9905906920345455,1.2922598700001817,12.935611577363636
3.845856083,3.9476255152254547,-2.12060686498,1.3097977003274546,13.0897454712
3.855876083,3.688259645589091,-2.26382666218,1.3306884091583637,13.266761804945455
3.865896083,3.3882942187527267,-2.4176835652345456,1.351486960551091,13.467758026127273
3.875916083,3.060724150661818,-2.5786644234890908,1.3623800761347271,13.696358370945456
3.885936083,2.7173317509345454,-2.743978833998182,1.3584712390492728,13.9552324726
3.895955083,2.369259707634545,-2.9148788557254544,1.3461735265929091,14.230182018272727
3.905975083,2.030458328996364,-3.091153452034546,1.3316794165383636,14.503917587527273
3.915995083,1.7084289974527274,-3.2692075314890907,1.3131075114474544,14.764157296872726
3.926015083,1.408522170470909,-3.4429259164709087,1.2924638581201817,15.006518187636363
3.936035083,1.130665757198182,-3.6146835865436366,1.272267601829273,15.230213656345454
3.946054083,0.8507088644418181,-3.785715064325454,1.251152795811091,15.44627769110909
3.956074083,0.5606063189581819,-3.94956354598,1.2197557301565454,15.647636615981819
3.966094083,0.28417366005454553,-4.101189390743636,1.1692620249638184,15.822258698018182
3.976114083,0.0011206985454546015,-4.237286636070909,1.1082904442207273,15.966542279545454
3.986134083,-0.28424879149090904,-4.349127111252727,1.0525543593734545,16.083691585563635
3.996153083,-0.5188159922727272,-4.428693884961818,1.0039030134916362,16.175993733054543
4.006173083,-0.690249115290909,-4.46864176994,0.9586729133643636,16.241723672818182
4.016193083,-0.8208188653999999,-4.459086106592728,0.9048118923589091,16.262739672072726
4.026213083,-0.9591027089090908,-4.388533533434545,0.827260124986182,16.2166128964
4.036232083,-1.164290957410909,-4.265173862670909,0.7194097871116364,16.09727351669091
4.046252083,-1.4862059386654545,-4.13080875398,0.5911134158407274,15.86859884749091
4.056272083,-1.92764815012,-4.018702230489091,0.4774459475569091,15.502115596527272
4.066292083,-2.4792537757199997,-3.9168776955072726,0.4562010250478182,14.971001536872729
4.076312083,-3.115977308847273,-3.80439024718,0.5691932422478182,14.349418423436365
4.086331083,-3.784853745229091,-3.6506926754345455,0.7888603448478182,13.739238555490909
4.096351083,-4.406435243610909,-3.4070286954709093,1.0501857440114546,13.185896973490909
4.106371083,-4.885292012701818,-3.060979692961818,1.2911824687205458,12.75607135767273
4.116391083,-5.2049155765199995,-2.6722042139436364,1.483749289655091,12.47596932549091
4.126411083,-5.432990836883636,-2.298457790798182,1.6665654000005454,12.283309371127274
4.136430083,-5.607102611792728,-1.9803064230163636,1.8648267922005455,12.143983558945454
4.146450083,-5.714633120338181,-1.7344477756327272,2.1049195479823637,12.07971857949091
4.156470083,-5.764292268338181,-1.5658868288145456,2.4369451199405456,12.128531529309091
4.166490083,-5.765559976592727,-1.4771895747054544,2.8435253653587274,12.287600597672727
4.176509083,-5.723044584538181,-1.4559877621236363,3.2626150428314546,12.516357663654546
4.186529083,-5.654541954810909,-1.4761489670145456,3.6506357420314544,12.774126805527274
4.196549083,-5.563999239701817,-1.5138894749418181,3.9604353030678183,13.0033367422
4.206569083,-5.450569305247272,-1.5546254529599999,4.150987231927818,13.12809418938182
4.216589083,-5.308036912047273,-1.5783777093963636,4.2191996457278185,13.120164496563637
4.226608083,-5.139288527465454,-1.577394651578182,4.184770373509636,13.017609025563637
4.236628083,-4.9485989392472725,-1.5469275669812728,4.070762654436909,12.922671750836365
4.246648083,-4.736091534265454,-1.4892140361994546,3.9018786729278183,12.848920544763637
4.256668083,-4.506799925301818,-1.417530999563091,3.7038968679096365,12.77698691270909
4.266688083,-4.276207417247273,-1.3447235167812726,3.5074235328914547,12.689525505218183
4.276707083,-4.052463417865455,-1.280558582854,3.3278268356914547,12.580623613618181
4.286727083,-3.8372194627381817,-1.2279939400576363,3.1672522047641816,12.45475280730909
4.296747083,-3.6328576491436366,-1.1864510994267272,3.0242224846005454,12.319284311054545
4.306767083,-3.4424543193345456,-1.1575281953825636,2.8985249056732725,12.17781149889091
4.316786083,-3.2647451245709087,-1.1413442984698363,2.7839749796005457,12.033877347036364
4.326806083,-3.099460035170909,-1.1337118880116546,2.6693627594005456,11.897381071418183
4.336826083,-2.939456842007272,-1.1267648297007455,2.551189303146,11.765711758309092
4.346846083,-2.7755478310363633,-1.112387608146927,2.4296833060732728,11.63369303352727
4.356866083,-2.6035728412236367,-1.0842262029396545,2.308125157146,11.501601199654546
4.366885083,-2.415614848952727,-1.0412134560232909,2.1921020357278183,11.365308450399999
4.376905083,-2.218907415314545,-0.984049251205109,2.083951026036909,11.220612980272728
4.386925083,-2.024947426281818,-0.9148543882305636,1.9870304232550908,11.063244644709092
4.396945083,-1.8203049782599998,-0.8415297896687454,1.9050162761641818,10.881741779327273
4.406964083,-1.5901309261145453,-0.7688588632887455,1.8403647980732725,10.667136895345456
4.416984083,-1.332603527361818,-0.6934092988487455,1.797624288224182,10.414559784600002
4.427004083,-1.045502788312727,-0.6089003402032909,1.7747836791587273,10.123159221461819
4.437024083,-0.7176588074290906,-0.5108928543087454,1.7604100749041818,9.80028836930182
4.447043958,-0.35725201221090885,-0.39835126208147276,1.744431747496909,9.474229651683636
4.457062958,0.016684333789091153,-0.27603921569965456,1.717220964004182,9.152242088265455
4.467082958,0.3897633742800002,-0.14862153740874542,1.6732375806132729,8.841927453847273
4.477102958,0.741352121789091,-0.0205523809723818,1.613075180086,8.547865623138183
4.487122958,1.0613982345472728,0.1022752782094364,1.540675710704182,8.269722604501819
4.497142958,1.3592354317018185,0.2160413385185273,1.4745506332860001,7.9952377523200004
4.507161958,1.6413107574096366,0.31687097374216366,1.4275717319587273,7.725219260847273
4.517181958,1.8993775059707274,0.40438179456398177,1.399966266726,7.471207712865455
4.527201958,2.1327761859070913,0.47504720437307274,1.3888818754309091,7.2352361390036375
4.537221958,2.343092833118,0.5259494372367091,1.3844426586763636,7.025848804007272
4.547240958,2.514526798658,0.5632024122767091,1.3817735376218183,6.867364214734545
4.557260958,2.6386591603580003,0.5883765454403456,1.384290612458182,6.767582734189091
4.567280958,2.7185517914234545,0.5917164032603455,1.3956928743490906,6.720125900261817
4.577300958,2.753401996710727,0.5684484650567091,1.4226397995672726,6.689554559207272
4.587320958,2.7507270443870913,0.5195546245112546,1.4661034398945456,6.638124457498181
4.597339958,2.7173066906381815,0.4577553624094364,1.5181911917490911,6.567767888298182
4.607359958,2.640612691194545,0.39974280102543636,1.555861208821818,6.502738670025454
4.617379958,2.533289136958182,0.34301556925998183,1.5211174786581818,6.481043204589091
4.627399958,2.4059726659945455,0.27531455558725454,1.3786299814399998,6.476531797480001
4.637418958,2.265731020521818,0.1799318077327091,1.1569299720581816,6.457581457934546
4.647438958,2.0834564686672725,0.04426489355089093,0.8955015236945454,6.419245448461818
4.657458958,1.807794759849091,-0.1264184622672909,0.6058429201490909,6.312285752752727
4.667478958,1.4396263465763637,-0.30986804932183637,0.2723592651127273,6.12727021778909
4.677498958,1.02036961934,-0.4797347617400182,-0.09650088439636362,5.932897485061819
4.687517958,0.6002712332672728,-0.6195746397036546,-0.4725805484690908,5.7761254190618185
4.697537958,0.19299530219454555,-0.7233568969054727,-0.8631990060327271,5.649018748152727
4.707557958,-0.18828046364181808,-0.7842062097236546,-1.30756762136,5.506724760516363
4.717577958,-0.5363727171327273,-0.7998879317963817,-1.785938986541818,5.334962083789091
4.727597958,-0.8533227425872727,-0.7919799447236545,-2.2476817314145454,5.164207999061818
4.737616958,-1.1306164092781816,-0.7897670712691091,-2.663416351069091,5.02400383978909
4.747636958,-1.3746647798963636,-0.805636457069109,-2.9923769507418183,4.943081425243636
4.757656958,-1.5920227745145452,-0.838829489687291,-3.2026639394145455,4.94604521888
4.767676958,-1.7914154488963636,-0.8881331163781999,-3.2913397820727277,5.032988020807272
4.777695958,-1.9884745951872724,-0.9542458269418364,-3.261923979,5.183037773843636
4.787715958,-2.1801260928963635,-1.0378234105205635,-3.1402726467272726,5.298932985625455
4.797735958,-2.3313740693327274,-1.1357308771205636,-2.9850164146000004,5.3296364843527275
4.807755958,-2.437863890369091,-1.2338613086842,-2.848730431772727,5.289160350152727
4.817774958,-2.4856070546799995,-1.3258124160478362,-2.762175778209091,5.22865078258909
4.827794958,-2.492877636770909,-1.4207733856296543,-2.7396294037,5.226485999225455
4.837814958,-2.493520123516363,-1.5344847013896548,-2.775895355445454,5.2943949175890905
4.847834958,-2.4296420460199997,-1.6617326110751092,-2.8347940185000002,5.415832690934546
4.857854958,-2.163132080192727,-1.8014372190283634,-2.8496943080454544,5.673207492007273
4.867873958,-1.5566424367745453,-1.903027533141091,-2.7813932371654544,6.232185878407273
4.877893958,-0.5355873458109088,-1.915399715212,-2.640396923456364,7.18305819038909
4.887913958,0.8277292722800002,-1.840512959892,-2.4426694032199996,8.473065880043638
4.897933958,2.2833500524909094,-1.700219630342182,-2.22057451542,9.866904725007274
4.907953958,3.568593780569091,-1.5603925524585456,-2.029639875710909,11.101808900516364
4.917972958,4.545885083025454,-1.4904970242658182,-1.9018120338563635,12.032287625407273
4.927992958,5.230129663387274,-1.4771500861021818,-1.8347119491672728,12.668489892989092
4.938012958,5.725762838354545,-1.4775884744512726,-1.7782688509,13.111236386552727
4.948032958,6.104698048696364,-1.4757520779694544,-1.7012078217181819,13.438426193389093
4.958051958,6.368529242914546,-1.4710384287930909,-1.622944668790909,13.657021148643636
4.968071958,6.519898953070909,-1.4575166954203636,-1.568096106227273,13.769874594461818
4.978091958,6.582492551440001,-1.439718286593091,-1.5407674548272725,13.809550931381818
4.988111958,6.560096123454546,-1.4244972467058183,-1.5323163152389092,13.822603453905456
4.998131958,6.466941720254546,-1.4257566014094545,-1.5354160305698183,13.868862738378182
5.008150958,6.322717015254545,-1.4460095384712726,-1.534449804097091,13.946380559941819
5.018170958,6.134246352345454,-1.4819776410403636,-1.5085535384716362,14.057260562941819
5.028190958,5.919375436290909,-1.5360406992767273,-1.4518493247989093,14.202698795105453
5.038210958,5.692167671350909,-1.6011964040221818,-1.369279888908,14.379780263923637
5.048229958,5.45846022656,-1.6633178490221816,-1.2744845098170907,14.585711280832726
5.058249958,5.222298513943092,-1.7190454912821818,-1.1838704533807272,14.80870281266909
5.068269958,4.987580165200182,-1.769734343304,-1.103423567409818,15.039551591014545
5.078289958,4.755186079445637,-1.8131197518767272,-1.0349596356261819,15.275402982694546
5.088308958,4.5277530373256365,-1.8465742759585453,-0.9695397855698181,15.504314823327272
5.098328958,4.303957734040182,-1.8757650462712727,-0.9061250839607272,15.717134582490909
5.108348958,4.074892749940182,-1.913089310834909,-0.8446497868334546,15.922701715327273
5.118368958,3.8341796391110914,-1.9576799302203636,-0.7843032920334546,16.122957418345454
5.128388958,3.5801583770420007,-2.011772823884,-0.728002241228,16.324360186
5.138407958,3.3075290767765457,-2.0806182253567274,-0.6785881579698182,16.539740143963634
5.148427958,3.007579966325455,-2.163113537164,-0.642415339078909,16.786624368363636
5.158447958,2.6832106906781825,-2.248381743470909,-0.6133410692243637,17.062682207054547
5.168467958,2.3342622825145454,-2.324117792250909,-0.5715916172425455,17.359116660690912
5.178486958,1.992917125878182,-2.3837110832690906,-0.4970540629516364,17.645577455963636
5.188506958,1.6779139095509092,-2.429322793941818,-0.38183135092981824,17.90327235709091
5.198526958,1.3840357212418184,-2.4737406865781817,-0.22980560178436368,18.13702498038182
5.208546958,1.0977893187872727,-2.524364938814545,-0.05620358169345459,18.364774229000002
5.218566958,0.8193879342418181,-2.5664959561781817,0.1179131049974545,18.589358008327274
5.228585958,0.5831651527509091,-2.581748141778182,0.2705539360338181,18.777666587236364
5.238605958,0.3984314426418183,-2.573451415869091,0.39619720495745453,18.913842164145457
5.248625958,0.2718222880781818,-2.5308061518327274,0.5022277218847272,18.982804576145455
5.258645958,0.2114153730054546,-2.455578219450909,0.5980915254847272,18.982288969054547
5.268664958,0.21044383155090918,-2.3634505740272727,0.6899530269210908,18.928029300763637
5.278684958,0.2539706856054546,-2.262511437730909,0.779856572242909,18.83563036845455
5.288704958,0.3128043169872728,-2.15253976722,0.8674222728465455,18.733891262581817
5.298724958,0.3662317510054546,-2.0388325365418183,0.9339161713629089,18.646276773509094
5.308744958,0.4254511285327274,-1.934479277478,0.9623771001974545,18.556710495054546
5.318763958,0.48909124562363643,-1.8341338807584002,0.9401267648919999,18.4672018878
5.328783958,0.5812427051690909,-1.712658788867491,0.8434434341465454,18.373359717472727
5.338803958,0.7085305406963638,-1.5704297545220363,0.6816323935283636,18.305838284745455
5.348823958,0.8415849747509092,-1.4186843448129454,0.5195135076374545,18.296848708309092
5.358842958,0.9745966816054547,-1.2708842535038547,0.43694890899199995,18.330148453272727
5.368862958,1.0736479938254546,-1.1474522473765818,0.49014489957381807,18.376238401163636
5.378882958,1.1363413510072728,-1.043477914467491,0.6965927339738182,18.43153901210909
5.388902958,1.2211161227527274,-0.9275748629402181,1.0248444067192728,18.51460100169091
5.398921958,1.3217016274072728,-0.7798484731402181,1.4164551686283635,18.645418432600003
5.408941958,1.3375674835890912,-0.5746350603765817,1.788402339682909,18.752074625145454
5.418961958,1.112067889770909,-0.3661922729402181,2.097249166184727,18.648853507145454
5.428981958,0.5258225188618183,-0.2371759393220363,2.3618692268938184,18.197861614054545
5.439001083,-0.3993446940472726,-0.2307226385038545,2.586671726475636,17.4066492826
5.449020083,-1.458354715683636,-0.35974245654021814,2.7937048139665457,16.48301880150909
5.459040083,-2.414140543683636,-0.5479115572674909,3.0198867459665455,15.673723024600003
5.469060083,-3.130417912229091,-0.6933951252674908,3.273909823202909,15.110112675872728
5.479080083,-3.6008319822290904,-0.7892929915584,3.5251443739501815,14.769163994236363
5.489099083,-3.91729102232,-0.8682978438565818,3.7193037424829094,14.551396728781816
5.499119083,-4.149838743610909,-0.9392101616456727,3.832309084028364,14.389591976781817
5.509139083,-4.30421415652,-1.0010211088747636,3.876179945719273,14.274735873018182
5.519159083,-4.386560276610909,-1.0624942219238545,3.8631665313956365,14.210558334618183
5.529178083,-4.414311103629091,-1.122578669760218,3.803170038981091,14.223703823418182
5.539198083,-4.390225922685454,-1.1889519681238545,3.7158398114,14.298546446163636
5.549218083,-4.327694357965455,-1.2466930911202183,3.615125370321818,14.342195250945455
5.559238083,-4.246331415292727,-1.2742294741674909,3.4903829759236364,14.361817385618183
5.569258083,-4.130125026165454,-1.2855517727256727,3.3312141857436366,14.357460416272726
5.579277083,-3.974772687001818,-1.2857639150347635,3.142623280161818,14.32551645869091
5.589297083,-3.78591016762,-1.267554904089309,2.937945653089091,14.26252260729091
5.599317083,-3.5676751650854546,-1.2413760930329454,2.726415301889091,14.169367137454545
5.609337083,-3.3389763149363634,-1.2169078609965818,2.518543000707272,14.061808565945457
5.619356083,-3.120379135763636,-1.2013480161602181,2.321510629361818,13.949891696836364
5.629376083,-2.9221975739090906,-1.1939273759056728,2.1412136058345452,13.835217682454545
5.639396083,-2.7371165021454544,-1.1872235537965818,1.964593981270909,13.728065996127272
5.649416083,-2.553549380745454,-1.1771253007420364,1.7900339693072724,13.632872002418182
5.659435083,-2.355145651327273,-1.1532049528056727,1.6287486039981818,13.529427272563638
5.669455083,-2.13429085164,-1.1140658121747637,1.4852460487436365,13.411474041036364
5.679475083,-1.8879221091363636,-1.0578800445456726,1.3663806090654547,13.271076929472727
5.689495083,-1.6194845395636361,-0.981434158411309,1.278470233370909,13.093358297436364
5.699515083,-1.3164135129672725,-0.8915552511185817,1.224476802170909,12.864437225472726
5.709534083,-0.9750027452418177,-0.7981783852822182,1.203279603570909,12.579725548490908
5.719554083,-0.5954286786545453,-0.693437886391309,1.1990111016072726,12.246780992363636
5.729574083,-0.19792742634363605,-0.5952687489149454,1.1989801724981817,11.883833113436365
5.739594083,0.19562014614909123,-0.5068063827858545,1.1956518948236363,11.512276698714546
5.749613083,0.5876427754145458,-0.41750835385349083,1.186217845587273,11.148346371132726
5.759633083,0.9808299521272731,-0.32790617403167266,1.175275988132727,10.79153114056909
5.769653083,1.3898850102727276,-0.24870701477530904,1.1782742064418181,10.452674835805455
5.779673083,1.8017838644363642,-0.19438214479349086,1.2096588494236362,10.148505511532727
5.789692083,2.195974896436364,-0.16173403546621815,1.2746769638636362,9.893872793296365
5.799712083,2.535966002763637,-0.11779218857530906,1.3490594473363637,9.666406020278183
5.809732083,2.78515758686,-0.0843359143007636,1.406167703609091,9.459692614405453
5.819752083,2.9732612492727277,-0.08476964481167268,1.4584021886818181,9.307031319187272
5.829772083,3.1349790906000004,-0.10208733809349088,1.4967165370145457,9.21076325026
5.839791083,3.2808183287818187,-0.11928688306803634,1.510581263738182,9.122860925660001
5.849811083,3.4196896393945457,-0.1363835356516727,1.50157309646,9.009553125110909
5.859831083,3.541743977720001,-0.14731357640094542,1.4876126883563636,8.90755035424
5.869851083,3.6479918888100005,-0.1637119412023636,1.4904866373781818,8.824848129803636
5.879870083,3.720593764887055,-0.2056672098605454,1.52763954796,8.753361599567272
5.889890083,3.7462284938670547,-0.2676037699041818,1.5862133928872726,8.676984949112727
5.899910083,3.715210069979782,-0.3370796766478182,1.6321356173054544,8.60822127744
5.909930083,3.6324362034616007,-0.405742461616909,1.6174807779236364,8.568184299003637
5.919949083,3.530856844897964,-0.45037177361690905,1.497109911450909,8.556251984203637
5.929969083,3.4387693472506915,-0.4706675654641818,1.2578891243599997,8.507327194221817
5.939989083,3.325902847847055,-0.4909854411816363,0.9335260732872728,8.38427511474909
5.950009083,3.1200575477561463,-0.5264597251107273,0.5582181247054546,8.175248758203637
5.960029083,2.795286573701601,-0.5884485725434545,0.1565891580872727,7.861809432258181
5.970048083,2.390774871228873,-0.6792731074925453,-0.2565774176218182,7.446711877585454
5.980068083,1.9549581250834187,-0.7746011320525453,-0.6769735438945456,6.961718727203636
5.990088083,1.5329696425616002,-0.8338131022198181,-1.09120043244,6.452985770112727
6.000108083,1.161635330136146,-0.8292445729634544,-1.4920978485672727,5.956738227476364
6.010127083,0.8502941320706914,-0.7741979147107273,-1.8775816958945453,5.504583663876363
6.020147083,0.5874128008034187,-0.6945730210016363,-2.24440543024,5.124795278385454
6.030167083,0.35890801039796416,-0.6054406038198181,-2.569062107130909,4.837726080494546
6.040187083,0.16069978390705508,-0.5170299244016363,-2.8525795714581816,4.649313566276364
6.050206083,-0.005735532511126747,-0.43408062680163634,-3.0909921670400005,4.537699285476363
6.060226083,-0.1286306366747631,-0.35903401391072715,-3.2431148922581814,4.469461212221818
6.070246083,-0.1991068917220358,-0.2975103709507272,-3.279633826461818,4.418646773021818
6.080266083,-0.22676227755294492,-0.24504342715799998,-3.2044458305709096,4.377331523112727
6.090285083,-0.225095953983854,-0.18071220905799995,-3.0560649406436364,4.34263273844
6.100305083,-0.1840909110129449,-0.10391864482163633,-2.8660437104436363,4.3206636086036365
6.110325083,-0.10633146912203581,-0.037556959803454505,-2.62950087368,4.310525079767273
6.120345083,-0.02828834161294491,0.024556454596545506,-2.3473811809527274,4.307401057767273
6.130365083,0.02699885515069145,0.08832136986927278,-2.0055156592436365,4.338943465530909
6.140384083,0.07003702416887327,0.1264389328256364,-1.5879824148072728,4.442163499658182
6.150404083,0.11315655319796418,0.13646198272018187,-1.082389188389091,4.650648848221818
6.160424083,0.1790653049034187,0.14345584001654552,-0.48316314747999994,4.973005113003636
6.170444083,0.2901676328943278,0.15746289295654553,0.17018127692000004,5.366817735749091
6.180463083,0.44172494298523696,0.17675161884745458,0.8100481030654547,5.765342161221818
6.190483083,0.604244437567055,0.19145614095472732,1.400181053829091,6.115398601730909
6.200503083,0.7474373216034187,0.1995147921765455,1.9158844244836364,6.3849314827127275
6.210523083,0.8514682980943279,0.20614536196745462,2.335941890629091,6.56675146874909
6.220542083,0.9088925910434187,0.21292219720018185,2.6606326940109093,6.658589867549091
6.230562083,0.9152584414361459,0.2176420351221819,2.900867154429091,6.6775772620763645
6.240582083,0.890312099845237,0.2139337203241819,3.06942459552,6.654141809876363
6.250602083,0.8633442150125097,0.2082586971996364,3.1813616826654543,6.607550501385455
6.260621083,0.8496121327070552,0.19979395419709095,3.2507369933745456,6.551278615985454
6.270641083,0.8317024646543277,0.17488199025527276,3.284492501550909,6.5174696431
6.280661083,0.7946572358706914,0.15129086182436366,3.2833774481509095,6.519978341536364
6.290681083,0.7585366698143279,0.1379594732625455,3.2405459662581824,6.547821521167273
6.300700083,0.7362780713325097,0.13133600252290914,3.1548935912399996,6.5896463606945455
6.310720083,0.7292359452688733,0.14350965036109095,3.02507646284,6.649771412676363
6.320740083,0.710975104076146,0.17108874996654547,2.8563202057854546,6.709717000512727
6.330760083,0.662222811336146,0.1995588748688364,2.654877492294545,6.769893925821818
6.340780083,0.5775245371179643,0.23175792867247277,2.42584166184,6.836180417712727
6.350799083,0.47679809862705513,0.22354770433610915,2.2031981988945457,6.942853823112728
6.360819083,0.3855799849306914,0.18115417887974553,2.00872705684,7.102022752803636
6.370839083,0.28109430237250965,0.13890101318520004,1.8147941244036363,7.274373553949091
6.380859083,0.15872027017250964,0.09941226486156367,1.6252814850218185,7.432460135003637
6.390878083,0.05212677268160054,0.06293081132520004,1.4463318407127272,7.5847319638399995
6.400898083,-0.018257206658399455,0.04268021846701822,1.275276415929091,7.748603068534546
6.410918083,-0.05668551191112673,0.04371539092156368,1.0952524255072726,7.925230209496363
6.420938083,-0.06873188446839947,0.06859976132701823,0.8924477360854547,8.121663592096365
6.430957083,-0.06259219906181764,0.10751492171247277,0.67079337754,8.340991835932728
6.440977083,-0.046883158527272185,0.14512271908338187,0.45088526326727263,8.562870548750908
6.450997083,-0.02555816902181764,0.1696101060633819,0.24585086035818177,8.768806196387272
6.461017083,-0.008084162389090366,0.17493081981429096,0.05866807064909093,8.954260194296364
6.471036083,-0.013725606552726729,0.15698885386338185,-0.10494686789636361,9.115372343896363
6.481056083,-0.05391912641454491,0.1255930613179273,-0.2360975016781818,9.250400598987273
6.491076083,-0.12111466157454491,0.09222701490810911,-0.34386716133272727,9.37248526755091
6.501096083,-0.18199508953818128,0.0509893644008364,-0.44132739311454544,9.489117143187272
6.511115083,-0.22778287582909038,-0.003073959620981779,-0.5360116857690909,9.599869356041818
6.521135083,-0.2713322523018176,-0.06153873270825451,-0.6398953602418183,9.717553769441817
6.531155083,-0.31462914864727215,-0.12113561045734542,-0.7688419552418182,9.857671018187274
6.541175083,-0.36039985576181766,-0.1805906413991636,-0.9330746043327273,10.029627045096364
6.551194083,-0.410042537245454,-0.22634956769189088,-1.1229955920236363,10.22078693227818
6.561214083,-0.46111473139818127,-0.2602375099991636,-1.3073191252418181,10.403533279696363
6.571234083,-0.5136983231490904,-0.2989429241082545,-1.4584010354418182,10.55755260246
6.581254083,-0.5540537125436358,-0.3396982510955272,-1.5609061384781817,10.662234035223635
6.591274083,-0.566292396034545,-0.3783614948282545,-1.613167254950909,10.712073375841818
6.601293083,-0.5570888134890903,-0.4181124960882545,-1.6352003396236363,10.728923663969091
6.611313083,-0.5456048739690903,-0.45421208127370905,-1.6702662832418185,10.758842276387274
6.621333083,-0.540755267725454,-0.47883989446098185,-1.7499284941327273,10.833727858823636
6.631353083,-0.5430797977436359,-0.4968708895809818,-1.8745505308963637,10.902220328114545
6.641372083,-0.5578422976527267,-0.5286606940973454,-2.01970738306,10.922686637423634
6.651392083,-0.6075551125127268,-0.5938932286064363,-2.1616748235872727,10.898147978223635
6.661412083,-0.6875292883127267,-0.6740134864609818,-2.295690348532727,10.832226275478183
6.671432083,-0.7788120270218176,-0.7603841919337091,-2.409049467896364,10.755519140732728
6.681451083,-0.8574573300399994,-0.8566279981155274,-2.505142801350909,10.683655109496364
6.691471083,-0.9259099647490904,-0.9196666227628001,-2.60184010966,10.599024907514544
6.701491083,-0.9865411578036358,-0.927623330433709,-2.6936661451145456,10.50794591715091
6.711511083,-1.055540785576363,-0.9088395700882544,-2.745124109478182,10.45268737206
6.721530083,-1.1485978937661812,-0.8909564882609818,-2.7101669452963635,10.479008340787273
6.731550083,-1.2540150018916356,-0.8979444850609818,-2.5713457532963635,10.60571360696909
6.741570083,-1.358621865322545,-0.9305693729682545,-2.35519596366,10.80916646896909
6.751590083,-1.4603743546170904,-0.9732219752446182,-2.087350664023637,11.06541698006
6.761609083,-1.533353956842545,-1.020119576353709,-1.7828244196599998,11.36204827115091
6.771629083,-1.5675920091516358,-1.0638957211264362,-1.4891297914781818,11.65280191206
6.781649083,-1.5677024657134542,-1.0918839105502547,-1.271823507550909,11.87108782255091
6.791669083,-1.531294186086181,-1.0901497964886182,-1.1545768296963634,11.985841838969089
6.801688083,-1.4802190842861813,-1.0528986633113455,-1.1237154700054544,12.024238299023637
6.811708083,-1.4453195922879993,-0.9903192630360728,-1.1353628684345454,12.080169607332728
6.821728083,-1.415260335040727,-0.9187660319306182,-1.187749583101818,12.157919493
6.831748083,-1.3721808939861815,-0.8464202134124363,-1.2756160967018182,12.253443156800001
6.841767083,-1.3085625471498175,-0.7841084907069819,-1.3680336151927275,12.355767715836363
6.851787083,-1.2371500425879993,-0.7367920721360727,-1.4318520085745454,12.439541925890909
6.861807083,-1.164427291273454,-0.7034724791960727,-1.4447990729381819,12.483320374181819
6.871827083,-1.0879729665352722,-0.6715461581488,-1.4029051548654543,12.485264734472729
6.881846083,-1.0000148669407267,-0.627657388032909,-1.3116437053381818,12.447599234636364
6.891866083,-0.8994967913043631,-0.5758345416183637,-1.1884601261381817,12.373397158109091
6.901886083,-0.7871443923952721,-0.5142281605547272,-1.0611774042472728,12.279819300854545
6.911906083,-0.6620112292316359,-0.43944332484563636,-0.9562488429563636,12.182989833654545
6.921926083,-0.524520238922545,-0.3563296513910909,-0.8838416658654545,12.096259213854546
6.931945083,-0.3890812199770904,-0.27286972708199997,-0.8446245605927273,12.033385427127273
6.941965083,-0.2734467762498177,-0.20141431193654546,-0.8274208614472727,11.996734578618181
6.951985083,-0.18600363028618136,-0.1541051014001818,-0.8080997685563636,11.968639810309092
6.962005083,-0.12815122281345406,-0.134693399262,-0.7522745828109091,11.911819789854546
6.972024083,-0.09817722061890859,-0.13996528876199998,-0.6311988079745453,11.792312799581817
6.982044083,-0.08619913025163586,-0.16245053064381818,-0.4298806933745454,11.593276783981818
6.992064083,-0.07400598460254496,-0.2003432787801818,-0.15084263208545448,11.358716303181819
7.002084083,-0.045548051147999515,-0.24686285739472724,0.17559411802363642,11.155555985981819
7.012103083,0.013272509064727765,-0.3133891946674545,0.5010375750054546,10.977360505963636
7.022123083,0.11228375722836413,-0.39982385804381815,0.7853019626418183,10.833674548618182
7.032143083,0.23613374890109143,-0.47757533441472727,1.009823242950909,10.709076316945456
7.042163083,0.37562746639200045,-0.5197240768147272,1.1979092999872727,10.579640803272726
7.052182083,0.5181841361556369,-0.5132256966329091,1.370377210169091,10.428423078854546
7.062202083,0.6347853372465461,-0.47452424933472725,1.5185823859690908,10.270125172545454
7.072222083,0.7067990445621823,-0.42163929607109085,1.682617143950909,10.087308109581818
7.082242083,0.7537561676785459,-0.3579705621929091,1.902269277750909,9.90708899769091
7.092261083,0.7926709240730914,-0.31782877425109085,2.1681361562236363,9.739447509181817
7.102281083,0.8462823221167277,-0.3406414894510909,2.4523572957327273,9.59816085749091
7.112301083,0.9235115065894551,-0.4035483284692727,2.7247902040054544,9.492074336945455
7.122321083,1.012676553898546,-0.457779584542,2.967446325987273,9.390869633254546
7.132340083,1.0923588818803642,-0.4931369985910909,3.1433313914272727,9.283777506872728
7.142360083,1.1573665032440006,-0.5182006526038182,3.2361793925545457,9.209021479618182
7.152380083,1.218721636098546,-0.5419311414529091,3.2616734016454543,9.197546656618181
7.162400083,1.2797146575240006,-0.5748923851219999,3.2465820569727275,9.229315298490908
7.172419083,1.3433693594185458,-0.5984579585674547,3.227566156845455,9.2641186016
7.182439083,1.3821793974858185,-0.6029380898856364,3.2242022430454544,9.273712894581818
7.192459083,1.3663040475112733,-0.5870429643698183,3.243117560427273,9.256485045963638
7.202479083,1.3058341870985462,-0.5436617338952727,3.2738968358454543,9.270164279000001
7.212498083,1.2702968728258188,-0.4966595858989091,3.2739527246090905,9.287729002709092
7.222518083,1.2881039993167278,-0.4607032761098182,3.2108609806818182,9.268938317145455
7.232538083,1.3157861587530915,-0.4211541885116364,3.067853756354545,9.210768942418182
7.242558083,1.311861023880364,-0.380080339428,2.8557962733545454,9.10478550729091
7.252577083,1.272554411007637,-0.3568269049770909,2.552521163081818,8.917018644927273
7.262597083,1.2135478621621822,-0.35290980471163635,2.1019484712454544,8.590244774945456
7.272617083,1.1421923812429093,-0.3373879455152727,1.4762707643000001,8.134636020672728
7.282637083,1.0552084796047276,-0.2753197486970909,0.7197471699000001,7.610680727472728
7.292656083,0.9549853694174549,-0.1737339076970909,-0.08192514726363634,7.079047489872727
7.302676083,0.8621569591120006,-0.05968305211527273,-0.8653310179181817,6.5825171419818185
7.312696083,0.7564834133738186,0.04920236253927274,-1.6010602231181819,6.151649874618182
7.322716083,0.6042495697920006,0.13493261981200003,-2.225608471136364,5.840002668436364
7.332735083,0.4196302525483642,0.2071857839029091,-2.6575395059363633,5.691616469163637
7.342755083,0.2720520657210915,0.27138678185036363,-2.8891903919363635,5.655560677690909
7.352775083,0.16417457019381876,0.31332323310490917,-2.9708435797727275,5.69395252970909
7.362795083,0.07297563272109145,0.3316108253049091,-2.956831142081818,5.731345866418182
7.372814083,-0.01796224251527217,0.34288522452309095,-2.8703466870090915,5.743674475763637
7.382834083,-0.11559534182436308,0.3532537996867273,-2.7462563109781817,5.722995818018182
7.392854083,-0.24598829338799946,0.3678130264685455,-2.669145420996364,5.698836042927273
7.402874083,-0.39152570360618133,0.4038583840321818,-2.636212764887273,5.696775238690909
7.412893083,-0.5196607528607268,0.4528749709230909,-2.562198018123636,5.6614132366000005
7.422913083,-0.5327759246789084,0.5132719431412728,-2.3745740825418182,5.706853973418182
7.432933083,-0.3540464758789085,0.5120213353412727,-2.0107466847236366,6.014969841854546
7.44295325,0.050573543612000546,0.4476339892685455,-1.4476911053054544,6.635239134727273
7.45297225,0.609777407957455,0.3289531435412728,-0.6923952241781819,7.497096078509091
7.46299225,1.250915317848364,0.17546989881400002,0.17839680603999983,8.471228464981818
7.47301225,1.9212431103210912,0.022251086450363645,1.0399776111490906,9.411159237872727
7.48303225,2.5479526859756363,-0.10357093185872727,1.766555083930909,10.179504609509092
7.49305125,3.055608568157455,-0.20081065971327272,2.2797599817854546,10.691115996927273
7.50307125,3.4216851852847276,-0.27888108841327275,2.5947505308581817,10.973015742163636
7.51309125,3.6523542626847276,-0.34523554812054547,2.7888360012036357,11.105482812254547
7.52311125,3.779691674648364,-0.412349822926,2.9303960077490903,11.170710394327275
7.53313025,3.8356778980701822,-0.4958021936987273,3.0382900960945456,11.249879792054546
7.54315025,3.830112486306546,-0.5746109423441819,3.0877615059872725,11.327814640200002
7.55317025,3.7766301017629096,-0.6202529814750909,3.0818980350781815,11.338912407854545
7.56319025,3.6834908773992736,-0.6231656922205454,3.048011315387272,11.307940276036364
7.57320925,3.559370053326546,-0.5783694236023637,3.0166644347981815,11.250031748436363
7.58322925,3.4176183112720007,-0.5201415026205455,2.9952478911799996,11.213084585599999
7.59324925,3.250886716417455,-0.48997725329327274,2.955714557834545,11.239564813272727
7.60326925,3.061307493199273,-0.5098074393296363,2.892519084289091,11.337445028563636
7.61328825,2.8694000814538185,-0.5749692756823637,2.8426507122345455,11.477812514509091
7.62330825,2.6777892325381827,-0.6684555881096363,2.804068136161818,11.672658490927272
7.63332825,2.4683668184581826,-0.790110064606,2.7539701386345454,11.890093661363636
7.64334825,2.2266061657000003,-0.9001580877841819,2.6975479527854542,12.113464815690909
7.65336725,1.9366580984745458,-0.947426048875091,2.639000464196364,12.324700901927272
7.66338725,1.5841251504018186,-0.9692457580205455,2.5776395625316364,12.547442865018182
7.67340725,1.1895448321109094,-1.0118552742932727,2.5115122219770907,12.823108023436363
7.68342725,0.7714226162927276,-1.0852822908205455,2.466167064591636,13.167871450763638
7.69344625,0.3301229333654549,-1.1818521829296365,2.469101803391636,13.537478884527271
7.70346625,-0.14111515014363601,-1.2763240435478183,2.530436193228,13.8843308422
7.71348625,-0.6113556801981815,-1.3552902497296364,2.6387596054170905,14.190116756381817
7.72350625,-1.0635526913799995,-1.439670980256909,2.7715728790243634,14.469622668090908
7.73352525,-1.468461661634545,-1.5402565115023636,2.9049631346061817,14.751938908781819
7.74354525,-1.7954553882527269,-1.6463756097654545,3.018000157424363,15.04993330529091
7.75356525,-2.0464700890527268,-1.7525448478945456,3.0996877481334546,15.312940375290909
7.76358525,-2.290276943089091,-1.8507367270545454,3.1749507797516365,15.568315549981818
7.77360425,-2.556375206361818,-1.923726759898182,3.2548528753334542,15.828974197054546
7.78362425,-2.809614767434545,-1.9735984316418183,3.3239199952534544,16.056812212654545
7.79364425,-3.0154223955254538,-2.021227902489091,3.359314244097091,16.250061762127274
7.80366425,-3.188092991343636,-2.0711553194563637,3.374821634097091,16.41709568049091
7.81368325,-3.3486475451254547,-2.1177006284909092,3.403693664713454,16.56797233810909
7.82370325,-3.499693218452727,-2.1686491460545456,3.476412689749818,16.690742842927275
7.83372325,-3.6252022831799997,-2.2370649047636366,3.605564234931636,16.765696911036365
7.84374325,-3.7189300244527272,-2.313941486181818,3.7674206712043636,16.79949102027273
7.85376225,-3.7948098097436365,-2.380137671058182,3.934531883240727,16.80657536269091
7.86378225,-3.8404669320345453,-2.4296858230060003,4.090103710858909,16.778777808363635
7.87380225,-3.8199540490163635,-2.4527729559914544,4.213271247416,16.7076060316
7.88382225,-3.7488279649800003,-2.472835026664182,4.27622796052509,16.617007567654547
7.89384125,-3.6893688834890908,-2.509999796446,4.298530688215999,16.544279471036365
7.90386125,-3.637919318016363,-2.5510615122096367,4.3386135016887275,16.48051223772727
7.91388125,-3.5644092391199997,-2.5801787963187275,4.384054223845091,16.44821066541818
7.92390025,-3.445003928683636,-2.6010220470096366,4.411917822390545,16.43123992138182
7.93392025,-3.293709578501818,-2.6202287577369088,4.432813166468727,16.42581278350909
7.94394025,-3.103658958065454,-2.640045109791455,4.519613796432364,16.421040842345455
7.95396025,-2.883234555974545,-2.672531548918727,4.664089501123272,16.42625468630909
7.96398025,-2.6222290845018175,-2.7114485432096362,4.774184896050544,16.551289119054548
7.97399925,-2.3516599071018183,-2.731018945427818,4.773344587377817,16.752889982327275
7.98401925,-2.0945636820109086,-2.615944667627818,4.583404920541454,16.8955497496
7.99403925,-1.873159095283636,-2.386341659918727,4.177740630886909,16.921776736872726
8.00405825,-1.6920419520109093,-2.110664339118727,3.5723754707596367,16.806014409963637
8.01407825,-1.595495066010909,-1.840441476427818,2.8480316343232723,16.546646570872728
8.02409825,-1.6156977276472728,-1.603278271355091,2.140556929977818,16.200608270872728
8.03411825,-1.7270349223745456,-1.4261527457005454,1.5762979936141819,15.860000201418183
8.04413725,-1.8654211665563636,-1.318369993664182,1.217595946057818,15.60474844378182
8.05415725,-1.9977930285563634,-1.2620691475132728,1.0382236756214545,15.434262504690908
8.06417725,-2.1123895250472726,-1.2357717150587273,0.950590508457818,15.312155314527272
8.07419725,-2.2094384742109088,-1.220537241204182,0.8697266203305453,15.225708161636364
8.08421625,-2.263404574992727,-1.1890386785314546,0.7608940113487271,15.168522981999999
8.09423625,-2.307447642501818,-1.1420102246950912,0.6572319888578181,15.118316848254546
8.10425625,-2.3772868287763633,-1.1294996124405454,0.5632262815487271,15.144594214854544
8.11427625,-2.46180938354,-1.1371119855496363,0.4859103988214544,15.223917289581816
8.12429525,-2.5700773109581814,-1.1604986687496364,0.4228030056105453,15.343937018072728
8.13431525,-2.6792730851945454,-1.1995861917496364,0.3840398781559999,15.465379189127272
8.14433525,-2.7695208295763636,-1.2329963527496364,0.37863634922872713,15.55400466949091
8.15435525,-2.8345113770854544,-1.2509455984769093,0.3970738002469089,15.605345877345455
8.16437425,-2.882398138449091,-1.2560135769678185,0.42381716795599983,15.636868335163637
8.17439425,-2.9085333213581817,-1.2541865187496364,0.4338301420287271,15.656732159163637
8.18441425,-2.8968616835399996,-1.2379555251678183,0.41412570568327256,15.642755449890908
8.19443425,-2.8400126928127274,-1.216231205386,0.37764846678690894,15.585525619527273
8.20445325,-2.7490109235399993,-1.2073479027314546,0.3370594651759999,15.500939233709092
8.21447325,-2.6124039550854543,-1.1876526146223636,0.30638644694981804,15.368723264981819
8.22449325,-2.4289319997581815,-1.1555596984223637,0.29752676572254527,15.187523332072727
8.23451325,-2.2121683586490906,-1.1252431184950908,0.30500890539527253,14.97588412298182
8.24453225,-1.9712456916490908,-1.0969863638041817,0.31455891819527265,14.744115187890909
8.25455225,-1.6985525505218182,-1.0752987326405454,0.3041435387407271,14.489306158072727
8.26457225,-1.4093243338854542,-1.0594538094587271,0.27073996915163623,14.226849668527274
8.27459125,-1.1153066523581816,-1.0563874445314545,0.21799634043527255,13.973489470745454
8.28461125,-0.8194740907399999,-1.077803626676909,0.15022536748981805,13.74390669490909
8.29463125,-0.5203498550490907,-1.1278533899860002,0.07584638172618167,13.54238097330909
8.30465125,-0.2126045271218179,-1.1959191795496364,-0.0011372940920001426,13.362462686545454
8.31467025,0.11444759462000027,-1.2739506870587274,-0.07935749656472742,13.20180634101818
8.32469025,0.46975406827454574,-1.3574216466587274,-0.14625959452836376,13.062912529890909
8.33471025,0.859784487347273,-1.4402045750223635,-0.1877044464483638,12.958943653527273
8.34473025,1.276335686565455,-1.511922987313273,-0.19784968321927288,12.89442000970909
8.35474925,1.7143785502018185,-1.5665140704041818,-0.1962718705465456,12.86695783370909
8.36476925,2.1825179471109095,-1.6022064634587274,-0.2021526811083638,12.884790501527274
8.37478925,2.6770851425654554,-1.6161873421314545,-0.19930461665018195,12.938694266981818
8.38480925,3.171917482929091,-1.6126184276041817,-0.1923217680683638,13.024308392618181
8.39482825,3.633230776383637,-1.5970673529187274,-0.20404537166836378,13.116772336254545
8.40484825,4.0349084769290915,-1.580814820666,-0.22924064117927287,13.183200872999999
8.41486825,4.352020565929092,-1.5719844612363636,-0.2484155589865456,13.210064224945455
8.42488825,4.574552761674546,-1.5755418009254545,-0.24657313057060015,13.195248938763637
8.43490725,4.727743241620001,-1.5880895808581816,-0.21991977277241834,13.136350916672727
8.444927583,4.809560321581818,-1.6014284831,-0.1875702501869638,13.075438037254546
8.454947583,4.816455677218182,-1.6206429294272728,-0.18820438471060014,13.058337799563635
8.464967583,4.762359630049091,-1.6472216554818182,-0.21849111194696377,13.043318705745454
8.474986583,4.645264543885455,-1.6697469109181817,-0.24575431572878198,13.032934873181818
8.485006583,4.486885180976365,-1.6787706982272728,-0.2540986300196911,13.030578198381818
8.495026583,4.29606193603091,-1.675334385281818,-0.24993088620150924,13.021745362745454
8.505046583,4.0751158134672725,-1.662627030172727,-0.25872947863787293,12.975803160890909
8.515065583,3.794641016867273,-1.6352679772272727,-0.2954839493106002,12.853307549836362
8.525085583,3.381632879449091,-1.6207498351181817,-0.36390198843787286,12.612589499145454
8.535105583,2.7875409597036365,-1.6683476376454547,-0.44468432385605466,12.203757215454544
8.545124583,2.004272434812728,-1.7592235855363634,-0.5252684466378729,11.624140531327273
8.555144583,1.1033784919581824,-1.8383862421545454,-0.5939125577106001,10.958704517818182
8.565164583,0.20010366906727323,-1.871775629590909,-0.6329252974742364,10.327223423872727
8.575184583,-0.6140211869509085,-1.8605983154090908,-0.6459478467469638,9.804340730963636
8.585203583,-1.2748681098963632,-1.7963610700272727,-0.644571547728782,9.42591217950909
8.595223583,-1.7538843165509086,-1.6598005976454544,-0.6322477965542366,9.210081190963637
8.605243583,-2.0487081484418175,-1.462068681450909,-0.6041776318287819,9.145118351145456
8.615263583,-2.1912479676090904,-1.2227847177963633,-0.5614276893542364,9.207324906218183
8.625282583,-2.2317502058472725,-0.9576278615236364,-0.5095284703360546,9.344878508218182
8.635302583,-2.239915449145454,-0.6902236279418181,-0.4499504857360547,9.494195203545456
8.645322583,-2.2170987737901813,-0.4460551820327272,-0.39144971240878196,9.643856231763635
8.655342583,-2.1539060218629085,-0.20044201679636356,-0.31352012453605466,9.7348800598
8.665361583,-2.057390732117454,0.0480358694036364,-0.221608100499691,9.786200873090909
8.675381583,-1.9018348408156358,0.2960648011127273,-0.11185831853605464,9.79688633790909
8.685401583,-1.6813356049974542,0.5505103503854546,0.012419827536672607,9.783908164272727
8.695420583,-1.369711701924727,0.8072236412581819,0.14092916770030897,9.782015451363637
8.705440583,-0.9364712310156357,1.0646753450945454,0.2606498477184908,9.851891035
8.715460583,-0.3498306733792722,1.3016807550763636,0.34403373430212714,10.031435655181818
8.725480583,0.41837998480254596,1.50815591724,0.36387162272030893,10.353135018454546
8.735499583,1.3437430049843642,1.7082696064399998,0.3295001582112181,10.844182408272728
8.745519583,2.380286641893455,1.9130594362581819,0.2711208873566726,11.475287902454546
8.755539583,3.4965577022570917,2.08313505904,0.24050551472030893,12.19911560681818
8.765559583,4.625381884166182,2.1947974626036366,0.2895367648293999,12.950456233363635
8.775578583,5.723273232111637,2.26588416962,0.4076580692293999,13.689340604272727
8.785598583,6.786828177548001,2.3048054908381816,0.5448913700839453,14.397274363545455
8.795618583,7.780201534366182,2.2971358362745455,0.6698192587748545,15.034554748636364
8.805638583,8.632762817966183,2.2295103739472726,0.7608502482839454,15.558955372636362
8.815657583,9.293081046238909,2.109358235801818,0.8056437235275817,15.956769102
8.825677583,9.757740701257093,1.9604255493654545,0.8046260342366727,16.24540834050909
8.835697583,10.047523202002544,1.8119915560563638,0.7753313987639453,16.448939872345456
8.845717583,10.196394365002545,1.6841510311472727,0.726352250000309,16.5941055854
8.855736583,10.231701277711636,1.578199217729091,0.6644814950548544,16.71061959889091
8.865756583,10.17981569067891,1.494785528929091,0.605208408200309,16.809024167509094
8.875776583,10.060301877188001,1.419188642601818,0.5545308612366726,16.89406244663636
8.885795583,9.871505925715272,1.3264266912745455,0.5252903550366725,16.968709429909094
8.895815583,9.616582153933454,1.2063366400381819,0.5242513380366727,17.031669753545454
8.905835583,9.310439483951638,1.0564031442563635,0.5475045691584908,17.081980620636365
8.915855583,8.958339931588,0.8723616914745456,0.5920394300312181,17.112267227
8.925874583,8.568798499333454,0.6521972512927273,0.6299537544093999,17.128176864818183
8.935894583,8.152501313751637,0.40055079860181825,0.6473221138094,17.142380746818183
8.945914583,7.726158930697092,0.11792599618909097,0.6668238750275817,17.191763025545455
8.955934583,7.31046744227891,-0.19674583673272725,0.6984555043930362,17.31670085990909
8.965953583,6.922823750351636,-0.5309800462509091,0.733109774800309,17.53457700783636
8.975973583,6.573191988842546,-0.8704174955945454,0.7596331463363635,17.841128434963636
8.985993583,6.254500258497091,-1.2131496590436364,0.7705817466799999,18.218865787
8.996013583,5.961188516626182,-1.5599366544563635,0.7549803068727272,18.63837104523636
9.006032583,5.691478943844364,-1.9074003469654546,0.7165425317781817,19.046032688981818
9.016052583,5.443004289444364,-2.2528813562927272,0.6746985622145454,19.42647735229091
9.026072583,5.214221951717092,-2.601195203274545,0.6428800797563635,19.780063012345458
9.036091583,5.002290290080728,-2.954570982165454,0.6241089786363635,20.10974347072727
9.046111583,4.799203371426183,-3.307285587147273,0.6149308327999999,20.42188763921818
9.056131583,4.591665350226182,-3.657328450492727,0.6183664467454545,20.7282448128
9.066151583,4.371380558462547,-4.014743196365455,0.6360711619090909,21.027243864581816
9.076170583,4.161937110426182,-4.382706606256364,0.6584374023272727,21.295360695272727
9.086190583,3.9719768614443636,-4.750452457129091,0.6768680812181816,21.530485814236364
9.096210583,3.810881658153455,-5.1090965428745445,0.6905671905454543,21.727398496909093
9.106230583,3.6861939199170917,-5.447364187710909,0.6985081559090908,21.87869539641818
9.116249583,3.597546101353455,-5.765039767510909,0.7022081464,21.987135541636363
9.126269583,3.5312204006443637,-6.068104898983637,0.700130107090909,22.06043123472727
9.136289583,3.4638095949352734,-6.360958548729091,0.698392567090909,22.106845267090907
9.146309583,3.3758570422080005,-6.656374746056364,0.7152924023999999,22.126602608363637
9.156328583,3.244326913498909,-6.956382049438181,0.7501876976927272,22.131317790181818
9.166348583,3.0721016415934552,-7.259889645074545,0.7976842291090908,22.13252992109091
9.176368583,2.8868258521407277,-7.561255086601818,0.8617769339636363,22.125870778727272
9.186387583,2.6985656438207277,-7.853442440729092,0.9260358485818181,22.11376494909091
9.196407583,2.5265732293200007,-8.123804313092727,0.9749127747272726,22.102849123636364
9.206427583,2.3824673131745464,-8.36931299922,0.9990340143999998,22.0854743156
9.216447583,2.2609473199927277,-8.595251330892728,1.0026763911999999,22.042452816927273
9.226466583,2.134625327527273,-8.798663774590908,0.9873246965999999,21.979502968018178
9.236486583,1.975781918945455,-8.984261761578182,0.9611524530181818,21.90379390690909
9.246506583,1.7413612387454551,-9.163605120185453,0.9450701435090909,21.803196534872725
9.256526583,1.3830148720727278,-9.346403930745455,0.9412538439272726,21.633860074472725
9.266545583,0.8834122457636369,-9.505703010167272,0.9499226520890907,21.342181194345457
9.276565583,0.2455193333636369,-9.628349416299999,0.9830273199872727,20.867042436563633
9.286585583,-0.49486220361818123,-9.735971468245454,1.036928064841818,20.18014961385455
9.296605583,-1.2592670791818175,-9.838220588150909,1.084000590732727,19.418714244327273
9.306624583,-2.0000718800909083,-9.90765295970909,1.0828684634599999,18.683870414145456
9.316644583,-2.6562917737272724,-9.928591271523636,1.017208040350909,18.03082321669091
9.326664583,-3.1979632882727267,-9.888699016158181,0.9729248861690908,17.488390327236367
9.336683583,-3.612881881181818,-9.786889965685454,0.9862309164236363,17.08327404778182
9.346703583,-3.8394094793636357,-9.630785121812727,1.001681322641818,16.855523812690908
9.356723583,-3.8531898995454537,-9.431747665794546,1.0389795152599999,16.82356859887273
9.366743583,-3.6840706048181815,-9.19150622854,1.1194693543436363,16.9489773356
9.376762583,-3.396778316272727,-8.897432620939998,1.2254642750345455,17.149475637054547
9.386782583,-3.027890833727272,-8.565644435230908,1.338633689452727,17.37436965378182
9.396802583,-2.6100663873272723,-8.232043878576365,1.4469988853072726,17.587062158145454
9.406822583,-2.1803743575999994,-7.907928196649091,1.5475413810381817,17.751212359963635
9.416841583,-1.8085056773999992,-7.608700810721818,1.6203721835727272,17.817780739963638
9.426861583,-1.5244807386545447,-7.340302231521818,1.6626043285181817,17.781803655054546
9.436881583,-1.2792197671636356,-7.071330771358182,1.6845220795181814,17.69130780892727
9.446900875,-1.064366996145454,-6.790683753103636,1.6538862176999998,17.561267045763636
9.456920875,-0.897850477836363,-6.513262609121819,1.5660883583781815,17.398854914745453
9.466940875,-0.7807428998981812,-6.233304089903636,1.4555236393236362,17.207511973563637
9.476960875,-0.7056832238072722,-5.946239797612727,1.3247404950690906,17.012708879072726
9.486979875,-0.6494172430072722,-5.648954907158181,1.1951542466327272,16.809575306272727
9.496999875,-0.591056970298181,-5.3389593234854535,1.087576008941818,16.584307361254545
9.507019875,-0.5181540237527266,-5.013434909141818,1.0045890738690908,16.335300612945456
9.517039875,-0.42002487058909027,-4.676510119952727,0.9517762274127272,16.063041920072727
9.527058875,-0.2862656770254539,-4.335292212047273,0.9215687565254543,15.764527763836362
9.537078875,-0.12394812924363573,-3.988605671669091,0.9179003888418181,15.445667260636364
9.547098875,0.04540206670181881,-3.646970190190909,0.939816396301818,15.123478690254544
9.557117875,0.22037750730181882,-3.3128097784127273,0.9857177886836362,14.801875081036364
9.567137875,0.4041830941381825,-2.9908508844240003,1.0365327691199997,14.48033085509091
9.577157875,0.6001200906290914,-2.678585520614909,1.0736758989054545,14.15231318430909
9.587177875,0.8034714842290916,-2.3774002052367273,1.0891968384981818,13.819860874072727
9.597196875,1.014628889392728,-2.0872494894476366,1.083671153261818,13.483548492981818
9.607216875,1.2325629942472733,-1.8086868972494543,1.0613212000072727,13.145440389545456
9.617236875,1.4608592794290918,-1.5451478750858183,1.0233461443381817,12.803368932054546
9.627256875,1.6938861641563643,-1.2975010801403637,0.9761615804781816,12.463705502072727
9.637275875,1.922444330174546,-1.0686864924494546,0.9324495504236362,12.139442264890908
9.647295875,2.139703219883637,-0.8570763267221818,0.9038817770054545,11.839340363054546
9.657315875,2.345617660683637,-0.6626863439949091,0.887803215041818,11.566207823872727
9.667334875,2.5460234821181826,-0.48431193286036367,0.8747971044236361,11.317393014254547
9.677354875,2.748996528881819,-0.31980856838036364,0.862272347241818,11.0947851412
9.687374875,2.954541298027273,-0.17065394830327274,0.8524292135145454,10.906784698763637
9.697394875,3.1604338702090913,-0.03609300040509092,0.8325671468599999,10.746339529545455
9.707413875,3.3722834474818186,0.08224722906036364,0.7964046376745453,10.595679994400001
9.717433875,3.592418933336364,0.185098210844,0.7489866954945452,10.434850125654545
9.727453875,3.8048001819727277,0.277434644404,0.6903780277490909,10.266452680963637
9.737473875,4.012630393827274,0.3605992736930909,0.6279146947181817,10.096275636781819
9.747492875,4.215927291281818,0.4332497108967273,0.5685181412345452,9.932097744418183
9.757512875,4.4055997722818185,0.4925958454258182,0.5243160454018181,9.780639854672728
9.767532875,4.562488148350909,0.5372355947149091,0.5020773726418181,9.653135401763635
9.777551875,4.697960108389092,0.5677936752785455,0.48674439445999995,9.545434159581818
9.787571875,4.819753060234546,0.5893696937258182,0.4567003160545453,9.44856107110909
9.797591875,4.931293174583637,0.6071405090130909,0.40923168383636355,9.349759440672727
9.807611875,5.039805228563637,0.6266339273203636,0.36884884574909077,9.2425532568
9.817630875,5.134076399454546,0.6465910776676363,0.3581269020981817,9.152708757454546
9.827650875,5.191077024418182,0.6709766726003638,0.3833384481454544,9.108318188472726
9.837670875,5.1822769648545455,0.6954541990549091,0.43976174030909077,9.123232321145455
9.847690875,5.0649373374909095,0.720910416524,0.521113062981818,9.095873264836364
9.857709875,4.82957830669091,0.7559384197003637,0.6196225456181816,8.967859825909091
9.867729875,4.494080190181819,0.8015611856058182,0.6905636503090908,8.741394622727274
9.877749875,4.071172631763638,0.8388897890603636,0.6502208231309089,8.427187328236363
9.887768875,3.5583607838363647,0.8661391003876363,0.5194337532781818,8.010126211872727
9.897788875,2.9244482730545465,0.9030467734240001,0.3989538521799999,7.488379121181819
9.907808875,2.2005199929090917,0.9664657806967273,0.3085876804672726,6.894021215
9.917828875,1.4507605746000005,1.0450868230785455,0.24413255190363622,6.295891250272727
9.927847875,0.7425742215818188,1.1107981993512728,0.21357968066727262,5.758600432945455
9.937867875,0.09619636134545516,1.1608939430421819,0.20779633255818172,5.293118475363636
9.947887875,-0.4748758039272722,1.2017485025876362,0.21932780463090895,4.885596329163636
9.957907875,-0.9537200599999994,1.2267243739512725,0.24022792748181807,4.532145468127273
9.967926875,-1.3060256363636358,1.2612432839876364,0.2754136433472726,4.2836627171818185
9.977946875,-1.53684638778909,1.3208563598603638,0.3168677950018181,4.149241901636364
9.987966875,-1.713944941834545,1.3815406801876362,0.3456118991654545,4.067938797672727
9.997985875,-1.8506329632527265,1.4269557064785454,0.39687818100909084,4.019185746945454
10.00800587,-1.9419771774709087,1.4749411926967275,0.5181185869363635,4.006042445654545
10.01802587,-2.077260447536363,1.5646436453694545,0.6275718861181818,4.112360329018181
10.02804588,-2.3526855233727266,1.7271305352603639,0.7467745060090908,4.437170364418182
10.03806487,-2.876072795136363,1.9925207124421818,0.9105205950636364,4.9440494123090915
10.04808487,-3.5161855469727263,2.256391642951273,1.0638005885181818,5.599640680236365
10.05810487,-4.1671725151,2.526188517516727,1.193082889590909,6.296197056181819
10.06812388,-4.556187231354545,2.6993645345094546,1.2638573774472728,6.722425050690909
10.07814387,-4.843848290736363,2.7630513185858185,1.3399772714072724,7.005856132927273
10.08816387,-4.958265360336363,2.7525223956367273,1.4287245273672726,7.142903071581818
10.09818387,-4.957241877390908,2.705209273467636,1.5005477862927272,7.179713288527272
10.10820288,-4.892081166863636,2.634961867744,1.5248929518199998,7.167817931381818
10.11822287,-4.784163401443636,2.5559846463916363,1.5038465376836363,7.14150981749091
10.12824287,-4.655017841770908,2.448816173855273,1.438359193629091,7.134652428618181
10.13826287,-4.513502938316363,2.370417255277091,1.3363485169745455,7.170091227072728
10.14828188,-4.359566789552727,2.294080453615273,1.1911375353745453,7.248761639909091
10.15830187,-4.197049319170909,2.2051945155443637,1.0444320301563637,7.385753584254545
10.16832187,-4.042094500916363,2.120167400889818,0.8909320134799998,7.5183054775636355
10.17834088,-3.890136249643636,1.9699416149625455,0.7455531037763636,7.695489793363637
10.18836088,-3.7520086273890905,1.8546202578352728,0.602255407321818,7.849416173090908
10.19838087,-3.600534653916363,1.7250194171261817,0.4592507098672726,8.057829405109091
10.20840087,-3.42490281628,1.5674065391625456,0.3427931019945454,8.265790147563637
10.21841988,-3.2583725301509086,1.3618846033007275,0.22625794773999985,8.511527333545455
10.22843988,-3.073283244732727,1.1519753925479999,0.11684727937636354,8.768435467872727
10.23845987,-2.8880797219509087,0.9125173751254545,-0.006708513132727376,9.084487673218183
10.24847887,-2.718341235841818,0.6891211047181818,-0.13994047351454558,9.359471358618181
10.25849888,-2.5397429530599993,0.45452281281636364,-0.271949495929091,9.657803580854546
10.26851888,-2.371475240441818,0.11886699085090904,-0.43901515447636374,9.957793945781818
10.27853887,-2.185512108150909,-0.10087990045454552,-0.7055362749490911,10.289742088290911
10.28855787,-2.014961570987272,-0.3750612865254546,-0.8837372356272727,10.592293137018181
10.29857788,-1.8400584252963632,-0.6188373784563637,-1.0469187344345456,10.912467193563636
10.30859788,-1.6733092975509085,-0.8950458675854546,-1.2038182031654545,11.225058100254543
10.31861687,-1.5047532398018177,-1.134958371929091,-1.3645826357509092,11.502959483654546
10.32863688,-1.3131696827672723,-1.3635529451581818,-1.5741704409509094,11.822032943836364
10.33865688,-1.0701329949218177,-1.6385657686909092,-1.7240951180000001,12.182910733781819
10.34867688,-0.8598080919618177,-1.9107196644072726,-1.865411141890909,12.491068437527273
10.35869587,-0.618708116723636,-2.1657727736636367,-2.0583150369854546,12.833994675436363
10.36871588,-0.2720557907599996,-2.4052424942254547,-2.256429122989091,13.198499185272729
10.37873588,0.004851455040000471,-2.6532153990799996,-2.4934121400618183,13.520197392945455
10.38875587,0.23657950049454593,-2.903235340498182,-2.731746880316364,13.859754399890909
10.39877487,0.45530878614909137,-3.114034711098182,-2.9852967739345457,14.118616211
10.40879488,0.6525600382763641,-3.3246709925527274,-3.2427896121527273,14.38120331047273
10.41881488,0.8243746770581823,-3.6114301965890907,-3.4529708624072732,14.644826505654544
10.42883387,1.0204926144581823,-3.8238193116072723,-3.6517894912836364,14.895618803963636
10.43885387,1.1376000495490914,-4.017540905080001,-3.7810146819400003,15.017047198872728
10.44887633,1.2043080546036369,-4.169042241825454,-3.8456897867145456,15.041388735327272
10.45889633,1.2442619077945458,-4.299596050716364,-3.86754992762,15.005539089781818
10.46891533,1.3016849914909094,-4.408433935498182,-3.855685590692727,14.938562002963636
10.47893533,1.394991052527273,-4.48866586556,-3.8141583656745457,14.902000629963636
10.48895533,1.5301452907636368,-4.54743945516,-3.737759359310909,14.9604838458
10.49897433,1.6428624554545461,-4.576966816632727,-3.5834684600745454,15.062768211454545
10.50899433,1.679867681794546,-4.605161044814545,-3.358518415838182,15.203651857763637
10.51901433,1.623114164194546,-4.6487686009418185,-3.102491476638182,15.437672846527272
10.52903433,1.5119562920927276,-4.711279844341818,-2.7903094078018182,15.680393375709093
10.53905333,1.3778513865018187,-4.789692131838182,-2.4335775202563634,15.969837565981818
10.54907333,1.2330523011381822,-4.8852246489799995,-2.0203702089545454,16.345597286418183
10.55909333,1.149380302447273,-4.981756518892728,-1.6158177265363636,16.684050734363638
10.56911233,1.231215225647273,-5.131232263201818,-1.2738961639363635,16.85599026509091
10.57913233,1.5453422056090915,-5.3611915169109094,-0.8909508659545454,16.819207616363634
10.58915233,2.1574744303,-5.685486300929091,-0.6137344989727272,16.56586252490909
10.59917233,2.8935273619800004,-5.990647060601818,-0.36305769728181825,16.147068701272726
10.60919133,3.6436992497054557,-6.294406338092727,-0.12053685560909096,15.661999605636362
10.61921133,4.1101149361600005,-6.494241428056364,0.1263497747,15.433244936909091
10.62923133,4.437679624196364,-6.573558029041818,0.2887293225909091,15.262251822000001
10.63925033,4.564107692450909,-6.558320218125455,0.3738057962272727,15.240836030727273
10.64927033,4.592967727269092,-6.473481769361818,0.4095498171,15.268468161472727
10.65929033,4.5807887003236365,-6.361232374598181,0.43687856408181824,15.273208728636364
10.66931033,4.55026572294,-6.237947188780001,0.4529763529272728,15.243895258490907
10.67932933,4.506107158354546,-6.08617185787091,0.4777322927909091,15.197944334399999
10.68934933,4.4544636656514545,-5.955599182398182,0.4921821032636364,15.118852597872728
10.69936933,4.388454864491456,-5.831575497216363,0.5606204366272728,15.026282238563635
10.70938833,4.305474525126001,-5.689124796543636,0.629740982390909,14.89370637469091
10.71940833,4.213568636018728,-5.554760259580001,0.6851863852636364,14.780153644218181
10.72942833,4.1071003178750916,-5.35518475887091,0.7257532357181818,14.635606111381817
10.73944833,4.007138567478728,-5.190454985470909,0.7537005742272727,14.518812703381819
10.74946733,3.889052580920001,-5.016421467669091,0.7745338704636364,14.350271535800001
10.75948733,3.741867368572728,-4.832009775694545,0.7730015273,14.200589430745454
10.76950733,3.5998139146090917,-4.615288425750909,0.7805353036454546,14.013994903545454
10.77952633,3.4258394095909095,-4.4071782864145455,0.7982619975363637,13.805921667309093
10.78954633,3.2462500956454545,-4.179390618458182,0.8440869581909092,13.511853952945454
10.79956633,3.0544779364636367,-3.971318492298182,0.9097707427545455,13.236154244909091
10.80958633,2.824977962829091,-3.7443592680709092,0.9760986689363637,12.936097849127272
10.81960533,2.58888279732,-3.4121223865945454,1.0783160148272728,12.639413656109092
10.82962533,2.3403709597745457,-3.1923761328,1.2769715768818182,12.318954559181819
10.83964533,2.110014731047273,-2.9162972477363636,1.396867500209091,12.030928311454545
10.84966433,1.8787275852290912,-2.673693947149091,1.5170693210272725,11.718258318163635
10.85968433,1.6666922791563643,-2.4019985250472726,1.6399929829727273,11.403699735927274
10.86970433,1.477380742263637,-2.1818076719581816,1.7722984749636361,11.121694822945454
10.87972433,1.2840967382927275,-1.9870575982309093,1.971501980969091,10.804292784563636
10.88974333,1.0512728509963642,-1.7542797740672729,2.1325551069963637,10.4542640916
10.89976333,0.8643356391600006,-1.5167147296672727,2.282685898472727,10.155883882436363
10.90978333,0.656710783414546,-1.2905478724709092,2.455509339272727,9.826979893745454
10.91980233,0.3501744732018186,-1.0728107749327271,2.5889522223999997,9.484838996763637
10.92982233,0.10734452712545502,-0.8425279410854546,2.747323244909091,9.172630906945455
10.93984233,-0.10245769707999952,-0.6104942644927274,2.912996265909091,8.827929966963637
10.94986233,-0.29194209119999953,-0.4205393599654545,3.1060893359636363,8.544224175127273
10.95988133,-0.44667249379999957,-0.2442444685672727,3.299458635509091,8.2396349012
10.96990133,-0.5641408090709086,-0.013386745687272699,3.4522727939636364,7.945709389
10.97992133,-0.7030720783436358,0.12409016004909094,3.6034700169272726,7.660225286709091
10.98994033,-0.7639059331072722,0.22901191298363638,3.688085646490909,7.510819786618183
10.99996033,-0.7733192729981813,0.2926615353036364,3.6946705678545455,7.467683047545455
11.00998033,-0.7606930959309086,0.33479649520545457,3.6312297886363636,7.503599584763636
11.02000033,-0.7748178373472722,0.36417514802545464,3.5075692126181814,7.576684201963636
11.03001933,-0.837620003165454,0.37878939585090915,3.322817750490909,7.610206437945454
11.04003933,-0.9501161632745451,0.3724426380509091,3.120623790254545,7.521737986218183
11.05005933,-1.0513785304018177,0.33838449946909094,2.8771154725272727,7.372639956490908
11.06007833,-1.069728908405454,0.3019708909018182,2.610612075163636,7.162554289818181
11.07009833,-0.977655620905454,0.2665078873727273,2.3722897902181823,6.879278139472728
11.08011833,-0.8303977479236359,0.2401470110065455,2.1275279794000004,6.629293095672728
11.09013833,-0.6740564304418178,0.24765918485745456,1.9425693180545454,6.356002049963637
11.10015733,-0.551064325514545,0.30097421109018185,1.703540050927273,6.071689371636364
11.11017733,-0.5377647430599996,0.37160013693018185,1.6918546651090909,5.972763055818183
11.12019733,-0.6315150610781813,0.47860080320290915,1.7288997587454544,6.0547205849090915
11.13021633,-0.7994993373854541,0.5914796065483636,1.8035277840181816,6.230205736545455
11.14023633,-0.9789549230218177,0.6909938174756364,2.019009973472727,6.3990256161818175
11.15025633,-1.1565295427199995,0.7862028149301817,2.2667995087454544,6.640956482909091
11.16027533,-1.359183202445454,0.8963867550574546,2.559558461836364,6.9055141440000005
11.17029533,-1.503021518354545,1.060889897530182,2.803980561290909,7.125263826545455
11.18031533,-1.5664234872272722,1.1935392188065455,3.0280833122,7.411373304363637
11.19033533,-1.5678771671909086,1.3069693644792726,3.2319831401999997,7.6286126356363635
11.20035433,-1.5177376088999996,1.4067283448610908,3.382332361018182,7.761296080872727
11.21037433,-1.451191402854545,1.5134490959701818,3.469513602309091,7.8729333628000004
11.22039433,-1.4061218361345451,1.6015020842792729,3.5508949872909095,7.967073271309091
11.23041333,-1.3826436160781812,1.6549367645156363,3.6207484848636367,8.031170624581819
11.24043333,-1.3751196730459994,1.6734017881156362,3.695602607967273,8.0310789898
11.25045333,-1.3671370287623634,1.6455574286538182,3.7197024187672727,7.992254280236364
11.26047333,-1.347713777342363,1.5674648146356365,3.7110580958218184,7.98442516529091
11.27049233,-1.3061879808714543,1.465263512962909,3.6907420047672725,8.025612691218182
11.28051233,-1.2562597268369085,1.3294254082174544,3.6582870227127273,8.160669101327272
11.29053233,-1.1936134733859995,1.1549041322356364,3.605361715021818,8.293134386236364
11.30055133,-1.1238070309181813,0.9743915877065453,3.510303108949091,8.445005393272726
11.31057133,-1.0529299825527267,0.7517052118774546,3.3914962726945457,8.656536433600001
11.32059133,-0.9816263337527268,0.5254907232065456,3.2609113636581815,8.897922381163637
11.33061133,-0.8983001751163631,0.2960867187792728,3.118545912603637,9.178452753218181
11.34063033,-0.8012659417890904,0.033673907732000075,2.952869759712727,9.478511700490909
11.35065033,-0.6889253379709086,-0.24994907988254542,2.833406727330909,9.8107124898
11.36067033,-0.5506989426090905,-0.5788934312007272,2.727313026058182,10.108086072309092
11.37068933,-0.39158936046363585,-0.867102767768,2.6091520458218183,10.410965810236362
11.38070933,-0.23342313862727226,-1.1964718088352728,2.5204466466945457,10.68772278261818
11.39072933,-0.04333609526363589,-1.6480194502625456,2.4187167390218183,11.01138608489091
11.40074933,0.10171201480909137,-1.9685682243043634,2.314239329930909,11.360946757636366
11.41076833,0.2286471667363641,-2.2444838224061816,2.2002703438581817,11.664618613327272
11.42078833,0.35306300722909134,-2.5166240947680003,2.100234304849091,11.95993112049091
11.43080833,0.4645053273818186,-2.775937529222545,1.9939115168254546,12.237620075054547
11.44082733,0.5653911417690914,-3.0444296388407275,1.8862370465618183,12.50423422929091
11.45084488,0.6671792465872732,-3.2719174872407275,1.7208397779763638,12.790275558272727
11.46086487,0.7718015395872733,-3.5328541902552724,1.6512984648672728,13.078865439690908
11.47088487,0.9082795094727277,-3.7750342617934547,1.6219462597218182,13.34336570758182
11.48090388,1.0583881726036366,-4.027943410368,1.6100845698854547,13.581451520672726
11.49092388,1.2321982045909095,-4.254755036960727,1.5942389177763636,13.795441313745453
11.50094387,1.3934193758200006,-4.48419749059709,1.5707305266672726,14.063917895945455
11.51096287,1.5509505885836368,-4.689462128813455,1.5623177610854546,14.324498691872726
11.52098288,1.6916223815636366,-4.900085248057091,1.5668441129036363,14.530728028072728
11.53100288,1.8304532709454548,-5.1050302646843635,1.5814419485945455,14.753397988727274
11.54102187,1.974319641745455,-5.273720730564364,1.603041625430909,14.955740952454546
11.55104187,2.079551122763637,-5.4271246981389085,1.6389829574127273,15.091512238309091
11.56106188,2.193237562014546,-5.578363910858909,1.6857142692127272,15.218740114090908
11.57108188,2.3320978013163645,-5.732723458860727,1.7399565375581816,15.321081545890909
11.58110087,2.499199653716364,-5.897571337478908,1.8097932046672727,15.394224362054544
11.59112087,2.667816428643637,-6.062370904878908,1.859397456958182,15.479899671472726
11.60114088,2.8445978642072727,-6.199449282442545,1.8691778915945456,15.563683742381818
11.61115987,2.9857528134345457,-6.281637582638909,1.8425089367036365,15.688684271236363
11.62117987,3.0952575849709096,-6.329629296473454,1.7876955834854547,15.7660488922
11.63119987,3.1921041825163643,-6.328853450478727,1.7173822203345455,15.806880542781817
11.64121988,3.2720824737072736,-6.290937963269636,1.5640663355963635,15.807243289872728
11.65123887,3.367190954434546,-6.221245287651455,1.435040820269091,15.771740157509091
11.66125887,3.450631885634546,-6.096740114196909,1.0936355453236364,15.637619671872727
11.67127887,3.347215084943637,-5.959007420415092,0.8427501279236363,15.52443847550909
11.68129788,3.215158994016364,-5.761404550596908,0.5732454061054546,15.373955191872728
11.69131787,2.9212306749618184,-5.506126761324182,0.23960220374181818,15.473753219509089
11.70133787,2.4859262489800007,-5.234837844560546,-0.030419868621818193,15.569287108600001
11.71135787,1.9767154762527277,-5.006571435924181,-0.34400285444000006,15.825847950781819
11.72137688,1.4823371073436369,-4.865962253524182,-0.5418461088036365,16.053695746054544
11.73139687,1.0807476809072731,-4.795962444705999,-0.6886138738945455,16.272891314054547
11.74141687,0.7513759747981823,-4.752732051451455,-0.7286467109854545,16.429121918781817
11.75143588,0.5031905477072731,-4.773814077833272,-0.64578973044,16.611691443327274
11.76145588,0.2608487292981823,-4.824020897615091,-0.5384400310945455,16.84059853550909
11.77147587,-0.009309602839999539,-4.882755872742363,-0.43135927127636375,16.948146544618183
11.78149487,-0.16785912463818137,-4.920904806415091,-0.3820467142218183,17.003741368272728
11.79151488,-0.26036805618545406,-4.941767783342364,-0.37678469503454554,17.054402193527274
11.80153488,-0.3133006130909086,-4.923735237771454,-0.4110952101254546,17.093101559472725
11.81155487,-0.33543577428363586,-4.871440731689637,-0.4573350063981819,17.14486024996364
11.82157387,-0.3569969019381814,-4.807738914780545,-0.5010399453254546,17.172302176363637
11.83159388,-0.3661943122836359,-4.722704831635091,-0.570884303889091,17.124316720200003
11.84161388,-0.38021762757454497,-4.607926799871454,-0.6135925919254547,17.097747612563637
11.85163287,-0.3824411057563632,-4.502879369871454,-0.5908213447254546,17.059561464563636
11.86165287,-0.38116448364727235,-4.362596721598727,-0.5292222276709092,16.950778080381816
11.87167288,-0.3873386175927268,-4.223840640398727,-0.4673218669618183,16.80248636238182
11.88169288,-0.4117835341199995,-4.1087154434350905,-0.3982163552345455,16.66895265510909
11.89171187,-0.4418524122654541,-3.968593825380545,-0.30297698674363643,16.50476126438182
11.90173188,-0.4808930240654541,-3.8264034729805454,-0.25456541223454554,16.304161207036366
11.91175188,-0.5405970673927268,-3.6491293664714544,-0.205217549089091,16.157634161763635
11.92177087,-0.6202088542472722,-3.5147310455805454,-0.10623342510727282,15.9827475278
11.93179087,-0.7070139619563631,-3.332020997907818,-0.0071760835618182835,15.807645004818182
11.94181088,-0.8281584701927268,-3.0144087837987272,0.12648965488727262,15.55146698630909
11.95182988,-0.915993338483636,-2.800521432453273,0.28891765172363626,15.281035445909088
11.96184987,-1.0046774309381814,-2.603442825253272,0.48326315066909076,15.040234876472725
11.97186987,-1.1343590650127267,-2.361413727162364,0.6703722270145454,14.811965520054544
11.98188988,-1.293219679176363,-2.0920242543096363,0.8554433102872726,14.59014752849091
11.99190888,-1.4589469386309084,-1.7790770828369091,1.0260418853781816,14.386693313127273
12.00192887,-1.6237983713581814,-1.4890847267641818,1.249786717069091,14.155751075381819
12.01194887,-1.7686206253218177,-1.1492410136914544,1.390558407541818,13.918547114636365
12.02196788,-1.9193425634599997,-0.8290790606732727,1.5093060302690906,13.687964850054545
12.03198788,-2.03958600756909,-0.5001126342914545,1.6018255986327272,13.480436063199999
12.04200787,-2.142821104932727,-0.19648123589145453,1.6749971805509092,13.315813908218184
12.05202688,-2.187952243932727,0.09082392781763636,1.7253801391545456,13.134905673127273
12.06204688,-2.2130007174599995,0.3573424062358182,1.7455811227181817,12.988496800927274
12.07206688,-2.238256256132727,0.6515957418358183,1.7327385782999998,12.920098476509093
12.08208687,-2.2593257700599993,0.9481030075994545,1.6993208180272728,12.835114219036365
12.09210588,-2.2863762133509087,1.209719620035818,1.6570123834090906,12.742501089018182
12.10212588,-2.300786377878181,1.4748797573812726,1.6127112360454543,12.710526301945453
12.11214587,-2.323668884514545,1.7292812029630908,1.5716299534272729,12.671895108672729
12.12216487,-2.358955203496363,1.9876512718358184,1.5160209716636361,12.634917854127274
12.13218488,-2.416108565078181,2.225269813344909,1.4805487245727271,12.640281343581819
12.14220488,-2.460462140514545,2.473579534417637,1.4245151032454544,12.607018367218183
12.15222487,-2.5296980664236357,2.6941302094903636,1.4136628000090907,12.58523278058182
12.16224387,-2.5922416993327273,2.8734683502903637,1.4092382394272724,12.57258226669091
12.17226388,-2.6741435421509085,3.028204404872182,1.395923781063636,12.57797580609091
12.18228388,-2.7672874192054544,3.132097183352727,1.367459765650909,12.580715425581818
12.19230287,-2.83040504076909,3.1808139668254545,1.3285443066254548,12.577578103127271
12.20232287,-2.8682245244509086,3.1796387953709093,1.2720679279199998,12.534724740072727
12.21234288,-2.844098881992727,3.088988650407273,1.203232233501818,12.424816218236364
12.22236187,-2.5954596073290905,2.9620454236618183,1.1062763562836362,12.188373838072726
12.23238187,-2.3085112768527267,2.786745098661818,0.9975588894472727,11.9429312702
12.24240187,-1.9212911926527267,2.584429848170909,0.9718453136290908,11.597487182381819
12.25242188,-1.493151457125454,2.371273446461818,0.9703726039927272,11.295732637472726
12.26244087,-1.1333675663981813,2.222796957843636,1.098393969629091,11.035929252745454
12.27246087,-1.0767414903981813,2.1272652560254546,1.2974986390836363,11.063354868018182
12.28248087,-1.2180673353072724,2.1382726582072724,1.4893467029018184,11.351198464563636
12.29249988,-1.5316590365799996,2.171876098752727,1.656520685992727,11.569598223836364
12.30251987,-1.9252037876709085,2.191038898789091,1.7491322169018182,11.852812222563637
12.31253987,-2.348651778034545,2.1717658414254544,1.8467075983563637,12.191554815654543
12.32255888,-2.6301681823981813,2.121599103189091,2.0950401283563638,12.558222325654546
12.33257888,-2.878275847689091,2.0412628751163635,2.27985064692,12.95712719101818
12.34259887,-3.095754744252727,1.939188624770909,2.466260325210909,13.243909020490909
12.35261887,-3.264992297125454,1.8114482275163637,2.6708132850654547,13.513564798036365
12.36263788,-3.3723835918781813,1.6818994166527272,2.8488007605563634,13.550002034290909
12.37265788,-3.436817929005454,1.5874449481800001,2.985695087721818,13.499662493654544
12.38267787,-3.483515298741818,1.5161898817072725,3.091923497249091,13.461645889981819
12.39269687,-3.5252387721254537,1.4361273275981816,3.1394480228854547,13.467622241618184
12.40271688,-3.575940651434545,1.3526233711072726,3.1328333772309085,13.497995573072727
12.41273688,-3.6268289152527267,1.2762249079254546,3.066243806903636,13.535467816527275
12.42275587,-3.675244696398181,1.2051848013254547,2.998391576558182,13.609051005436363
12.43277587,-3.719925241870909,1.1458619814527273,2.8975846013763635,13.680550639254546
12.44279588,-3.7607594999254546,1.0847404532163636,2.732914806885454,13.843740457436365
12.45281546,-3.776964300416363,1.024204476089091,2.5575615288490905,14.033690131872728
12.46283446,-3.7589989201072727,0.9306016664890909,2.213083154976364,14.203444871509092
12.47285446,-3.7038594311436364,0.8332409921436364,1.99703914434,14.38958649529091
12.48287446,-3.6307122359799995,0.7104912401072727,1.7464820945945456,14.629562132636362
12.49289346,-3.517667229016363,0.605826565270909,1.4650687293818183,14.923538896781817
12.50291346,-3.386460402834545,0.35352895301636356,1.1566621567636364,15.171081885909091
12.51293346,-3.2615335603981817,0.1976989843618181,0.8560880421636364,15.473970803345454
12.52295246,-3.102290542196363,-0.030886376092727374,0.5660164182363636,15.7285739154
12.53297246,-2.9393834470872724,-0.2634181276727274,0.27185051098181817,16.031470802236363
12.54299246,-2.7674856468327267,-0.4992328927818183,-0.003740116509090896,16.260445463418183
12.55301246,-2.627437562759999,-0.7412981208545455,-0.2295578868181818,16.501015399163638
12.56303146,-2.5134047680145453,-0.996020517018182,-0.44622856825454543,16.68220833390909
12.57305146,-2.4368112147127268,-1.2330463242545455,-0.6646760715090909,16.86091558612727
12.58307146,-2.387561587658181,-1.4697805906,-0.8553887127090909,17.0139382728
12.59309046,-2.3555753050218176,-1.7143383132545456,-1.0585911618818182,17.153114351054544
12.60311046,-2.3438651292218182,-1.9099394639090912,-1.2454941467036365,17.2591971116
12.61313046,-2.36631756784,-2.116363799109091,-1.4024302521581817,17.386964978163636
12.62314946,-2.345119702585454,-2.3156714492545456,-1.5551349489218182,17.48559413803636
12.63316946,-2.327676179585454,-2.4951709784909095,-1.6629693089036364,17.572789738963635
12.64318946,-2.327505140694545,-2.6662570850909093,-1.7454986371763637,17.656416672436364
12.65320846,-2.2973839146763635,-2.8516055339818185,-1.8219336278672729,17.7164405306
12.66322846,-2.2568650647672723,-3.015659682618182,-1.8534447022672729,17.739109376963633
12.67324846,-2.2460493698581816,-3.1713252116363635,-1.8423877047581818,17.72756169812727
12.68326846,-2.2428894936763633,-3.3023191298363637,-1.83391405014,17.64319970169091
12.69328746,-2.2558019895309087,-3.4435783448545454,-1.7924547684854546,17.588515787963637
12.70330746,-2.270083478621818,-3.568877295209091,-1.800055976430909,17.53289927783636
12.71332746,-2.2843884228218174,-3.6850675760509093,-1.8182805988490909,17.47006582041818
12.72334646,-2.291227242512727,-3.7838405809309092,-1.835930566049091,17.40847550510909
12.73336646,-2.2871723480218176,-3.8680168257672727,-1.825394751910909,17.322382706472727
12.74338646,-2.258430564367272,-3.944919010330909,-1.7617289176745456,17.29946126009091
12.75340546,-2.161829698976363,-4.004538401930909,-1.649596791332727,17.371772111963637
12.76342546,-2.0232732346163633,-4.015809854185455,-1.547619360150909,17.511305687254545
12.77344546,-1.8847251178981814,-4.016527558494546,-1.439464290387273,17.64512830250909
12.78346546,-1.7806421169927267,-4.017615539603637,-1.2834023111872728,17.73284144638182
12.79348446,-1.7299241277109085,-4.089395551967273,-1.1959674286418183,17.732507376927273
12.80350446,-1.6233122086199996,-4.213938627176364,-1.1871455439145455,17.680365197472728
12.81352446,-1.3695245886381813,-4.40337142944909,-1.2681226588236365,17.463598147472727
12.82354346,-0.8736668884563631,-4.65598686843091,-1.40450495646,17.072878535290908
12.83356346,-0.28653463227454495,-4.931607209521817,-1.5598816906418183,16.417460218563637
12.84358346,0.3880614770709096,-5.175976369394545,-1.7150291030054543,15.952111610018182
12.85360246,1.0120797730890914,-5.334795184763637,-1.8492311477327272,15.535629390563635
12.86362246,1.6347456985072735,-5.4153142658036355,-1.97192779046,14.995484779654547
12.87364246,2.1474440806709096,-5.416385482658182,-2.201804836278182,14.598036572018183
12.88366246,2.5149861439618184,-5.354463317530909,-2.312727106169091,14.199424321890909
12.89368146,2.7727744054890913,-5.247894309749091,-2.4017483525145455,13.953956050454545
12.90370146,2.9050933805800003,-5.08108409814909,-2.4233986060963635,13.734895013236365
12.91372146,2.909114205143637,-4.897331966294545,-2.463007256987273,13.693520864163636
12.92374046,2.8394943388527283,-4.730356033876364,-2.4777503704072723,13.706485421763636
12.93376046,2.7527881205709095,-4.584801753985454,-2.451323424443636,13.680489393418181
12.94378046,2.6926436518090915,-4.423213355112727,-2.3665221672981818,13.565563570127273
12.95379946,2.6619951514490916,-4.257194994549091,-2.2469997095709093,13.38533753661818
12.96381946,2.651144095923637,-4.097306491972727,-2.081311330225455,13.182166206581819
12.97383946,2.647958286905455,-3.9374541686056364,-1.8876420425709093,12.961830456927272
12.98385846,2.658561897523637,-3.753305110925455,-1.66571870018,12.700279730072728
12.99387846,2.623870564287273,-3.5559396332945457,-1.4005915341436366,12.369498847527272
13.00389846,2.5721946375600004,-3.341925450172728,-1.1477399161618183,12.04165040530909
13.01391846,2.4947876265600004,-3.091875181118182,-0.7589381352163637,11.723498912236362
13.02393746,2.3921556009090916,-2.835903936465455,-0.5329513863618183,11.420278154690909
13.03395746,2.291104720876364,-2.5650092903018185,-0.31735178847090917,11.1051330372
13.04397746,2.1632525748763642,-2.3292508228709097,-0.09897363681636373,10.791670377654546
13.05399646,2.0297583398218184,-1.9676546990345454,0.1117763219290908,10.512057831345453
13.06401646,1.910215852658182,-1.7253371783345457,0.2989352912199999,10.181988087854545
13.07403646,1.7843369941672733,-1.4443958151236367,0.4846731345836362,9.882011643581817
13.08405546,1.666230910103637,-1.1921721798690912,0.6963038162163635,9.514278524001817
13.09407546,1.530787052345455,-0.9650242015127275,0.9181740630472727,9.216686255692727
13.10409546,1.4174843321181825,-0.7535144573072727,1.10711898334,8.919281177965455
13.11411546,1.3163688875818187,-0.5519377370072728,1.2866148816872727,8.67041514242
13.12413446,1.2347587156690913,-0.37961872316545464,1.4693043291110908,8.413201941734545
13.13415446,1.1590944866872732,-0.21616347209818193,1.6298591967856362,8.185451663156362
13.14417446,1.080767271125455,-0.05659174710545465,1.8068807104565454,7.965843674465455
13.15419346,0.9841779886400005,0.06926837511818172,1.976856846602,7.760570379374545
13.16421346,0.8973344563672732,0.20627560051745444,2.1252478806565454,7.527780136101818
13.17423346,0.767255736985455,0.3294547150610908,2.290184903783818,7.290894747229091
13.18425246,0.630717917485455,0.43216750879199994,2.4257732300383634,7.060883687992727
13.19427246,0.5027818261618187,0.532932240962909,2.547892042002,6.842723051265454
13.20429246,0.37077888299636413,0.6228287376556363,2.669092555329273,6.642964988610909
13.21431146,0.2467765783672732,0.6973924795756363,2.7307246561292726,6.4914766530836365
13.22433146,0.16794181185818227,0.7464212249647272,2.7580995507110906,6.390168852483637
13.23435146,0.11948391344000046,0.7762263875592726,2.7595090480565454,6.350090397265454
13.24437146,0.09358206234909139,0.7984776192901817,2.739126762856545,6.342580755592728
13.25439046,0.08331533222181865,0.8046299918374544,2.716757376892909,6.35412838012
13.26441046,0.06946091462181865,0.803988630612,2.6928587168019997,6.369730604138182
13.27443046,0.06138213634909137,0.790694999193818,2.663242561256545,6.399312435429091
13.28444946,0.04589078368727319,0.7670980412356362,2.5900921129729086,6.443555658974546
13.29446946,-0.003046907638181355,0.7461770935429091,2.4546677617183636,6.461243135792727
13.30448946,-0.11427648176836316,0.7108586114065454,2.241202063045636,6.377170756047273
13.31450846,-0.2509426394756359,0.6514634460792725,2.0448484137183636,6.233356891574545
13.32452846,-0.38057059439199953,0.5818932758156362,1.827581464572909,6.064807172483636
13.33454846,-0.45125356254654503,0.5015482250247272,1.5239128786456362,5.853626550065454
13.34456746,-0.4105945432647268,0.45438892076472714,1.196234372282,5.606620078556364
13.35458746,-0.306679262246545,0.44280902331927263,0.8638257437674545,5.314323596774545
13.36460746,-0.1690841902647268,0.468554069162909,0.5365362400947272,4.99222148822909
13.37462646,-0.04152342294654498,0.5631455602538181,0.21341936309472723,4.694054752047273
13.38464646,-0.016560926910181337,0.7073254887992726,0.05266365891290903,4.562797487501818
13.39466646,-0.09040175985563588,0.8131389784719998,0.025622290185636325,4.585104265501818
13.40468646,-0.252671388237454,0.898267176313818,0.1250928990947272,4.774359974774545
13.41470546,-0.41193989983745405,0.9564390902447271,0.40563302127654544,5.118433474229092
13.42472546,-0.5981635189101814,0.9768191157538181,0.8401670021856364,5.505225082956364
13.43474546,-0.7588922282010904,0.9784038651356363,1.2632234397129092,5.940282553629091
13.44476446,-0.8794328169101814,0.9807001808629091,1.6831433138765455,6.335517407610908
13.45478496,-0.9362206869465449,0.990642895953818,1.9938950408401819,6.70510873192
13.46480496,-0.9274879160738176,1.0026578071719998,2.3425431869674544,6.9949136174290905
13.47482396,-0.8802184643101811,1.0182952029174543,2.6099244614401815,7.137234226792727
13.48484396,-0.8213815783829085,1.0426262586810908,2.814705460112909,7.226011785156363
13.49486396,-0.7793741166392723,1.0887502737174544,2.9689457780947275,7.260467315865455
13.50488396,-0.7606340683101813,1.1152114556992725,3.0482153695674543,7.2513044689927275
13.51490296,-0.7655283207829084,1.1303144143410908,3.045113493731091,7.264548642938181
13.52492296,-0.7780614825101813,1.1297277020594545,2.9421422875674543,7.336904256029091
13.53494296,-0.7811975622192722,1.1052641140338182,2.795801089903818,7.485163095429091
13.54496196,-0.7623095539465449,1.0624962599483636,2.6347335200129094,7.64651516942909
13.55498196,-0.7391928025283631,0.9931242962629089,2.4497285196674548,7.829311264374545
13.56500196,-0.7016521353647266,0.902242341444727,2.301685917631091,8.017766201447273
13.57502096,-0.6583052300956357,0.8111790224465453,2.098385536049273,8.207399578810909
13.58504096,-0.6288690114265449,0.7057390804647272,1.9299686016129092,8.393960871756363
13.59506096,-0.6061337034992722,0.6065542330883635,1.723771532503818,8.610484730210908
13.60507996,-0.578264578917454,0.5080721956519998,1.5160453746674545,8.803977460701818
13.61509996,-0.5142312528992722,0.3932852178610908,1.358170989922,9.027396067465455
13.62511996,-0.4601133944629086,0.2932797704319999,1.1699841652856364,9.225209674283636
13.63513896,-0.38913344489018126,0.18190627725018174,1.0021533373074545,9.443692698045455
13.64515896,-0.3130738649319994,0.08380388183927263,0.8124673212038181,9.638332432354545
13.65517896,-0.23609929145018124,-0.029021328766181905,0.6213876655292727,9.804862689536362
13.66519896,-0.17119601051381764,-0.137840672157091,0.44944139501836367,10.003241017627273
13.67521796,-0.11013272531018128,-0.23873618236254557,0.29889504197636374,10.201762299585454
13.68523796,-0.06367129060109036,-0.33896795084800013,0.15001354550181822,10.379529976527273
13.69525796,-0.014129592511999458,-0.4226160064589092,0.022472003267272764,10.543452279581818
