Time (s),Linear Acceleration x (m/s^2),Linear Acceleration y (m/s^2),Linear Acceleration z (m/s^2),Absolute acceleration (m/s^2)
0.007689958322,-0.5282528146323819,-0.740156504170909,0.6582252813963636,8.549383710032728
0.01770695834,-0.5282528146323819,-0.740156504170909,0.6582252813963636,8.549383710032728
0.02772295836,-0.5282528146323819,-0.740156504170909,0.6582252813963636,8.549383710032728
0.03773995832,-0.5282528146323819,-0.740156504170909,0.6582252813963636,8.549383710032728
0.04775695835,-0.5282528146323819,-0.740156504170909,0.6582252813963636,8.549383710032728
0.05777295836,-0.5282528146323819,-0.740156504170909,0.6582252813963636,8.549383710032728
0.06778995832,-0.5282528146323819,-0.740156504170909,0.6582252813963636,8.549383710032728
0.07780595834,-0.5282528146323819,-0.740156504170909,0.6582252813963636,8.549383710032728
0.08782295836,-0.5282528146323819,-0.740156504170909,0.6582252813963636,8.549383710032728
0.09783995833,-0.5282528146323819,-0.740156504170909,0.6582252813963636,8.549383710032728
0.1078559583,-0.5282528146323819,-0.740156504170909,0.6582252813963636,8.549383710032728
0.1178729584,-0.5282528146323819,-0.740156504170909,0.6582252813963636,8.549383710032728
0.1278899583,-0.5282528146323819,-0.740156504170909,0.6582252813963636,8.549383710032728
0.1379059583,-0.5282528146323819,-0.740156504170909,0.6582252813963636,8.549383710032728
0.1479229583,-0.5282528146323819,-0.740156504170909,0.6582252813963636,8.549383710032728
0.1579399583,-0.5282528146323819,-0.740156504170909,0.6582252813963636,8.549383710032728
0.1679559583,-0.5282528146323819,-0.740156504170909,0.6582252813963636,8.549383710032728
0.1779729583,-0.5282528146323819,-0.740156504170909,0.6582252813963636,8.549383710032728
0.1879889583,-0.5282528146323819,-0.740156504170909,0.6582252813963636,8.549383710032728
0.1980059583,-0.5282528146323819,-0.740156504170909,0.6582252813963636,8.549383710032728
0.2080229583,-0.5282528146323819,-0.740156504170909,0.6582252813963636,8.549383710032728
0.2180389583,-0.5282528146323819,-0.740156504170909,0.6582252813963636,8.549383710032728
0.2280559583,-0.5282528146323819,-0.740156504170909,0.6582252813963636,8.549383710032728
0.2380729583,-0.5282528146323819,-0.740156504170909,0.6582252813963636,8.549383710032728
0.2480889583,-0.5282528146323819,-0.740156504170909,0.6582252813963636,8.549383710032728
0.2581059583,-0.5282528146323819,-0.740156504170909,0.6582252813963636,8.549383710032728
0.2681229583,-0.5282528146323819,-0.740156504170909,0.6582252813963636,8.549383710032728
0.2781389583,-0.5282528146323819,-0.740156504170909,0.6582252813963636,8.549383710032728
0.2881559583,-0.5282528146323819,-0.740156504170909,0.6582252813963636,8.549383710032728
0.2981719584,-0.5282528146323819,-0.740156504170909,0.6582252813963636,8.549383710032728
0.3081889583,-0.5282528146323819,-0.740156504170909,0.6582252813963636,8.549383710032728
0.3182059583,-0.5282528146323819,-0.740156504170909,0.6582252813963636,8.549383710032728
0.3282219583,-0.5282528146323819,-0.740156504170909,0.6582252813963636,8.549383710032728
0.3382389583,-0.5282528146323819,-0.740156504170909,0.6582252813963636,8.549383710032728
0.3482559583,-0.5282528146323819,-0.740156504170909,0.6582252813963636,8.549383710032728
0.3582719583,-0.5282528146323819,-0.740156504170909,0.6582252813963636,8.549383710032728
0.3682889583,-0.5282528146323819,-0.740156504170909,0.6582252813963636,8.549383710032728
0.3783059584,-0.5282528146323819,-0.740156504170909,0.6582252813963636,8.549383710032728
0.3883219583,-0.5282528146323819,-0.740156504170909,0.6582252813963636,8.549383710032728
0.3983389583,-0.5282528146323819,-0.740156504170909,0.6582252813963636,8.549383710032728
0.4083549583,-0.5282528146323819,-0.740156504170909,0.6582252813963636,8.549383710032728
0.4183719583,-0.5282528146323819,-0.740156504170909,0.6582252813963636,8.549383710032728
0.4283889583,-0.5282528146323819,-0.740156504170909,0.6582252813963636,8.549383710032728
0.4384049583,-0.5282528146323819,-0.740156504170909,0.6582252813963636,8.549383710032728
0.4484219583,-0.5282528146323819,-0.740156504170909,0.6582252813963636,8.549383710032728
0.4584389583,-0.5282528146323819,-0.740156504170909,0.6582252813963636,8.549383710032728
0.4684549583,-0.5282528146323819,-0.740156504170909,0.6582252813963636,8.549383710032728
0.4784719583,-0.5282528146323819,-0.740156504170909,0.6582252813963636,8.549383710032728
0.4884889583,-0.5282528146323819,-0.740156504170909,0.6582252813963636,8.549383710032728
0.4985049583,-0.5282528146323819,-0.740156504170909,0.6582252813963636,8.549383710032728
0.5085219583,-0.5282528146323819,-0.740156504170909,0.6582252813963636,8.549383710032728
0.5185389583,-0.5282528146323819,-0.740156504170909,0.6582252813963636,8.549383710032728
0.5285549583,-0.5282528146323819,-0.740156504170909,0.6582252813963636,8.549383710032728
0.5385719583,-0.5282528146323819,-0.740156504170909,0.6582252813963636,8.549383710032728
0.5485879583,-0.5282528146323819,-0.740156504170909,0.6582252813963636,8.549383710032728
0.5586049584,-0.5414882238142001,-0.8044902286072727,0.7761022678509091,8.486484107541818
0.5686219583,-0.586718204323291,-0.8823524432799998,0.8452556554690909,8.404083946978181
0.5786379583,-0.6318203195414728,-0.9778327333163634,0.8573176959127272,8.30730717256
0.5886549584,-0.661864249123291,-1.0820750334872726,0.8274396784145454,8.219273944650908
0.5986719583,-0.629802381632382,-1.1608231119527272,0.7612626032927272,8.226712172960001
0.6086879583,-0.5393054289687454,-1.1971007368672728,0.6844960186290908,8.339013752563636
0.6187049584,-0.4119317403687455,-1.181335165721818,0.6536888360290909,8.356424148654545
0.6287219583,-0.27246681776874554,-1.1192233407036363,0.6734825487381817,8.296036540654546
0.6387379583,-0.15481596438692732,-1.0318111345036363,0.7014210447927273,8.210935447672728
0.6487549584,-0.08148246209601824,-0.9306739503545453,0.7165138459563636,8.118493056236364
0.6587709583,-0.06302958903783643,-0.8413630362854545,0.7007078971327272,8.06224363229091
0.6687879583,-0.08990551975783641,-0.8095734151599998,0.6347357828781818,8.027574591127273
0.6788049584,-0.13819476350329096,-0.8071616406981816,0.49922769767818176,7.949712211745455
0.6888209583,-0.18621360609601825,-0.8333763882054545,0.35141445544181804,7.885067489581818
0.6988379583,-0.2192351219396546,-0.8780288844236362,0.27404995045999997,7.900218767872727
0.7088549584,-0.24397551927783642,-0.8887352107,0.23763996584181812,7.933395120309091
0.7188709583,-0.2722216386796546,-0.8745113270654545,0.1962200018036363,7.953309963872727
0.7288879583,-0.28617403875420006,-0.88851251684,0.14965013978727265,7.974170562381818
0.7389049584,-0.2922082736123819,-0.9383956982945454,0.11171945385272722,7.9322817316545455
0.7489209583,-0.2935764463269273,-1.0100814778036362,0.0914755002345454,7.863740798454545
0.7589379583,-0.3093223309651091,-1.1110192293672727,0.10078423034363629,7.764615608563637
0.7689549584,-0.3471609777451091,-1.233544784169091,0.17409222947090902,7.6741607326727275
0.7789709583,-0.41058814719783643,-1.376818046170909,0.28642026676181814,7.625559422818182
0.7889879583,-0.48561182571420003,-1.5625292299345452,0.37815950290727274,7.602141605927273
0.7990039584,-0.5549214891487455,-1.7835194404981818,0.4289023951672727,7.601271617654546
0.8090209583,-0.5973121315287455,-1.9762794002072726,0.5642373708854544,7.55118765370909
0.8190379583,-0.6375060806305638,-2.116410793770909,0.8599374345218181,7.328806955854545
0.8290539584,-0.7132339977942,-2.2474556142072726,1.0191334514563637,7.233064501127273
0.8390709583,-0.7929077516305637,-1.9619455783509088,1.1440335711654546,7.0384278634
0.8490879583,-0.6866301844851092,-1.1144568605872727,1.1986008773290908,6.415035575690909
0.8591039584,-0.4653997065760182,-0.17085650245999995,1.0516930180381818,5.6679835657454545
0.8691209583,-0.36426211844874545,0.6223608154127274,0.8558716316018182,5.050610158945455
0.8791379583,-0.4196054936669273,1.0258519713218182,0.8722946264745455,4.8361328876545455
0.8891539584,-0.4994100204822,1.1566254490545453,0.9863589412927273,4.8688665072909085
0.8991709583,-0.5740013319367455,1.1444542570472727,1.1017756267363636,4.980277445654545
0.9091880833,-0.6774816708094726,1.0771495942472729,1.1880279260818183,5.017064031054545
0.9192040833,-0.7916130053549272,0.9940478065927274,1.2146855523363638,4.994221988563637
0.9292210834,-0.8722917068458363,0.925231978738182,1.3070110409545455,4.9978118940545455
0.9392370833,-0.9109409996476546,0.8990025387636364,1.3612097227072726,5.045653229054546
0.9492540833,-0.9739349435931091,0.8824789664709092,1.3546419759436363,5.03262796630909
0.9592710834,-1.0269269354458364,0.8510715087327274,1.3276967570345453,4.999851751490909
0.9692870833,-1.0484839358240183,0.8075168963545456,1.2907618944345456,4.9633038959636355
0.9793040833,-1.062186296998182,0.7555366375945455,1.2645315561072727,4.934134462436363
0.9893210834,-1.0627269983309091,0.700238115838182,1.2395063661436365,4.903643302727272
0.9993370833,-1.04136364311,0.6367505685654545,1.229475770670909,4.883957477654545
1.009354083,-1.0042635448372728,0.5522459275472729,1.2366458072345454,4.870906521945455
1.019371083,-0.9502343579100001,0.45635182472909097,1.2139387591963637,4.832364044945455
1.029387083,-0.8807024401463637,0.35396102945636365,1.1825848061381818,4.775714360818181
1.039404083,-0.8221930102718181,0.22821100100181824,1.2019193529381818,4.725567092927273
1.049420083,-0.7506278575027273,0.09257389434727281,1.1856789028109092,4.645281419272727
1.059437083,-0.6740553392663636,-0.022747837614545373,1.1059638756109091,4.523190623727273
1.069454083,-0.6028954038481817,-0.12246247924545448,0.9905054888836364,4.406135643163636
1.079470083,-0.5381814163754546,-0.19969583117999992,0.8470448076654545,4.337065389909091
1.089487083,-0.4751032539209091,-0.25354983552545446,0.7094956136472728,4.294343323945455
1.099504083,-0.43482675010636357,-0.2996631044163635,0.6077587177927273,4.2535182651636365
1.109520083,-0.414493310160909,-0.3397309583072727,0.5363981072654546,4.220661714218182
1.119537083,-0.40103622241545456,-0.3582072667436363,0.48437307477454544,4.2104901321636365
1.129554083,-0.3907170774881818,-0.36069670287090905,0.4537366827090909,4.215858566290909
1.139570083,-0.3831111469427273,-0.3495112557363635,0.45613256204727276,4.226236006709091
1.149587083,-0.3834758803245455,-0.31339488639818175,0.49665665956909083,4.215925333363637
1.159604083,-0.39560168199727275,-0.2424369789254545,0.567069946749091,4.168911768872728
1.169620083,-0.4131090961609091,-0.14998609941636357,0.6376138208618182,4.1039102195636366
1.179637083,-0.4428244042518182,-0.07808844870727266,0.6921587933309091,4.038582884127273
1.189653083,-0.46738453725181817,-0.04155624664545447,0.7306744799181818,3.993998022818182
1.199670083,-0.4701214647427273,-0.019340633170909026,0.7526517635309091,3.977557951454546
1.209687083,-0.4698067011518182,-0.011629335799999935,0.7611635952145455,3.9746547388545452
1.219703083,-0.45655413437727277,-0.01229700277636357,0.7582894734327272,3.9832880823636363
1.229720083,-0.44744202353909096,-0.014406380507272663,0.7570548391599999,3.9865860589454547
1.239737083,-0.4390011816954546,0.00395161217454552,0.7584965499236364,3.9878081270363634
1.249753083,-0.42070851237909096,0.04088082953818188,0.7660017860872728,3.980795188127273
1.259770083,-0.3922169149118182,0.07770140564000007,0.7810032218327272,3.966623388436364
1.269787083,-0.3631479407645455,0.09659162252181826,0.7968876402872728,3.9536883850363633
1.279803083,-0.32746968203181825,0.0910587850763637,0.7976512334872726,3.961263165145454
1.289820083,-0.28805023783727274,0.05321742332000007,0.7842591215781819,3.9731800572363634
1.299836083,-0.24643088773363636,-0.007842572645454482,0.7674642251927272,3.9738862803636366
1.309853083,-0.19176219482636367,-0.06967214722727266,0.7424601862127272,3.9849475426
1.319870083,-0.12192607568090912,-0.11680103495272721,0.6741646090490909,3.9897290474909095
1.329886083,-0.020636156953636384,-0.13230098304181812,0.5743849889218182,3.968201316381818
1.339903083,0.10807019184636361,-0.1038347279327272,0.48140169917636366,3.934216636327273
1.349920083,0.24021562306454547,-0.03746310000545448,0.4271191364618182,3.8960231451818186
1.359936083,0.3415304881554545,0.032300316976363694,0.3803991711072727,3.874254006690909
1.369953083,0.4371119509736363,0.08420935664909099,0.3498836104163636,3.871311282636363
1.379970083,0.5671690544281818,0.09915921995818187,0.3012332452818182,3.8987219187090907
1.389986083,0.73389706121,0.0160987242654546,0.2033505894818182,3.9432308321636365
1.400003083,0.9371730681736363,-0.1541402697345454,0.07874013551818183,3.9369391049272724
1.410020083,1.1676050542645455,-0.3322931192981818,-0.015428464590909078,3.9185068543454546
1.420036083,1.4074249045736362,-0.45708704295272723,-0.08969010739090909,3.894193832527272
1.430053083,1.624994132519091,-0.5175147529145454,-0.2314149257,3.8638595541636365
1.440069083,1.7948758191190908,-0.5334578030059999,-0.44391257646363635,3.8412647948909093
1.450086083,1.9295440527918182,-0.5260935857241817,-0.6547116217181819,3.8204774792181815
1.460103083,2.0239658532645453,-0.503534549336909,-0.8109430471727272,3.778364941436364
1.470119083,2.0822297186645455,-0.4726126018601818,-0.9114641420927273,3.7187909529090906
1.480136083,2.114594171580909,-0.4558001133292726,-0.9757566389981818,3.6508755737327276
1.490153083,2.1467115809736366,-0.47604666098745446,-1.0089537274527272,3.6252020237145453
1.500169083,2.1869213840081816,-0.5377829565529091,-1.0311784200527274,3.6402350066236364
1.510186083,2.2184158629372726,-0.6195828244510909,-1.0125907381072727,3.6983418493145455
1.520203083,2.2523725312863636,-0.7050382440001818,-0.9746577026345454,3.7774594149145457
1.530219083,2.291143991031818,-0.8211978288219999,-0.9615000428163636,3.8697197561690913
1.540236083,2.3100195872154545,-0.9654870817565454,-0.9728669449981817,3.979337361769091
1.550253083,2.2974167829854544,-1.1124563262474545,-0.9975589074527272,4.095167239023636
1.560269083,2.2473213848036364,-1.2501069375747271,-1.0161416777254546,4.208672909787273
1.570286083,2.169821936712727,-1.3853148692474546,-0.9831953178690909,4.341603414460001
1.580302083,2.0726536857490907,-1.5100922293383636,-0.9279177796472727,4.474769550605455
1.590319083,1.9749555042745452,-1.588797229774727,-0.9365376173745456,4.560209637914546
1.600336083,1.849917968341818,-1.6225270846292725,-0.9381893361927273,4.637707148969091
1.610352083,1.71998769896,-1.6315520918892727,-0.8964893117745455,4.72906568846
1.620369083,1.6095846913054543,-1.6209108823292726,-0.8347599557927273,4.797475657005455
1.630386083,1.5023816003236365,-1.592465719722,-0.7380067694290908,4.8382421234781825
1.640402083,1.3896741850509091,-1.5454050211583636,-0.6385277147745455,4.884538259332727
1.650419083,1.266553062087273,-1.4978046883765455,-0.5844625834109091,4.945403656223636
1.660436083,1.1379663951599999,-1.4521995106310908,-0.5540218670872727,5.003000279714546
1.670452083,1.0163913637236364,-1.4000813319765453,-0.5134006592872727,5.049973546605455
1.680469083,0.915854561050909,-1.3347967758492727,-0.4844182000218181,5.0859800056963635
1.690485083,0.8222354663236363,-1.2519119092674544,-0.45062541717090904,5.125898347332727
1.700502083,0.7288499466109091,-1.1615736712856364,-0.3830734556745455,5.175359423987273
1.710519083,0.6276921430654546,-1.0726023528674546,-0.30648716194545456,5.2352507957327274
1.720535083,0.5138407944836364,-0.9841200105219999,-0.23064325462181814,5.316525461550909
1.730552083,0.39651869017454544,-0.8746776857947272,-0.15323959721818184,5.447162174805454
1.740569083,0.26628010908363636,-0.7478306877838181,-0.08008899716909088,5.612125148769091
1.750585083,0.12023902635636363,-0.6180840767892726,-0.014848840018181793,5.786621707278181
1.760602083,-0.02745578185454548,-0.49317711052018176,0.05030821757090912,5.959542993569091
1.770619083,-0.17098606089090912,-0.3831815222347272,0.12677105798909094,6.105643410550909
1.780635083,-0.2850008112563636,-0.28770837643109076,0.2126999903709091,6.216244779478182
1.790652083,-0.37003606583454546,-0.2166294953874544,0.2994391767345455,6.28420565466
1.800668083,-0.4294456399981818,-0.16713645078745443,0.3745385288618182,6.316774398660001
1.810685083,-0.4572890855709091,-0.13197419819836353,0.4201360946036364,6.318707999205455
1.820702083,-0.44705844624363644,-0.11812032636927261,0.43764478985818184,6.316914834078181
1.830718083,-0.398119225989091,-0.13475320970745444,0.4337560034036364,6.359196649841818
1.840735083,-0.3204707961709091,-0.1912362710419999,0.40378512682181816,6.452988939787272
1.850752083,-0.23202476237090908,-0.2735588587492726,0.33250657133090905,6.5904691892236364
1.860768083,-0.16447370320727273,-0.3594782495492726,0.22727008502181822,6.738998457514545
1.870785083,-0.10329351506181822,-0.41661491265836353,0.15290377442181818,6.849933014096363
1.880802083,-0.032844708716363656,-0.43276285982199986,0.12049545409454547,6.9263378223145455
1.890818083,0.03865552801090907,-0.4240434067856363,0.10664984809454549,6.988154651732728
1.900835083,0.09727174397454542,-0.4125515974583635,0.10924050482181819,7.029844413605455
1.910852208,0.1395887240472727,-0.40406033467654534,0.1287366899127273,7.050646634405456
1.920869208,0.1584534736472727,-0.39123481796745446,0.1613560681490909,7.045235967750909
1.930886208,0.14884392555636358,-0.36359636913109084,0.20280879785818184,7.008783011478182
1.940902208,0.08770451377454543,-0.3193998706765453,0.2386564557436364,6.925578571532728
1.950919208,-0.03413735800727276,-0.285028661312909,0.2592010253618182,6.8267725434963635
1.960936208,-0.18808372878909094,-0.2964134772219999,0.26856241230727274,6.767979606641817
1.970952208,-0.3335008724254546,-0.37216634604018173,0.2500541940345455,6.773168816259999
1.980969208,-0.4410258845127273,-0.5005387018783636,0.28045630810727273,6.79812559176909
1.990986208,-0.5493189018036364,-0.6467806377923634,0.39880007248909094,6.82314635286
2.001002208,-0.6954208925854546,-0.7765804159159999,0.4873080415909091,6.856796016260001
2.011019208,-0.8775612986945455,-0.8472225524850908,0.538728695250909,6.924786473841819
2.021036208,-1.0913146788763637,-0.8074879686163635,0.5986807820618182,7.080276559641819
2.031052208,-1.3128037445745455,-0.6800315950563636,0.598896194150909,7.316005217945454
2.041069208,-1.5230988728218182,-0.5010358108927272,0.5608762105927273,7.519953354
2.051085208,-1.696768941201818,-0.3165081992563635,0.5869211337018182,7.639329466745455
2.061102208,-1.80851013466,-0.18439662341999988,0.6657157453745455,7.707313626654545
2.071119208,-1.89420138436,-0.13234108440181808,0.7196706407563636,7.7377342957454545
2.081135208,-1.9743040925963635,-0.08389817847454532,0.7712711919745455,7.7428862636
2.091152208,-2.037940689381818,-0.0040573829836362246,0.8424574916836363,7.726111740945455
2.101169208,-2.073393825009091,0.09419343478000013,0.9225499726109092,7.6907661356
2.111185208,-2.0688029899545453,0.19744754487090924,0.9946023619018183,7.640834575654545
2.121202208,-2.047127154227273,0.30790116150727287,1.040010140301818,7.5699418746181815
2.131219208,-1.9969990209545454,0.42767730236181833,1.0641581628654546,7.479583306181818
2.141235208,-1.932187474009091,0.5303833901509092,1.0795282815018181,7.394944808872727
2.151252208,-1.8517901963363637,0.6027582799636366,1.0861990376109092,7.318630449618182
2.161268208,-1.7631195138363638,0.6344972535709092,1.0812640061927274,7.250760162527272
2.171285208,-1.6846264390854546,0.6359714429490911,1.0844145231927274,7.198922949036364
2.181302208,-1.6004805579727273,0.6051430721854547,1.0878529411563638,7.138752665345454
2.191318208,-1.501271709810909,0.5438256817836365,1.089244575810909,7.064753985854546
2.201335208,-1.3770630180290908,0.4828894979545456,1.0426981239018183,6.996214956545455
2.211352208,-1.2199680810836366,0.43369966870000015,0.8696147837418182,7.063513963818182
2.221368208,-1.0958957197927273,0.37037344077272744,0.8138285032145456,7.019688808781818
2.231385208,-1.0021845207927271,0.300575461409091,0.8228594108509091,6.980624029418182
2.241402208,-0.92141398612,0.2180716312818183,0.823186089469091,6.933761743327274
2.251418208,-0.8629549007890909,0.12150330197272739,0.767186332732909,6.849058516527273
2.261435208,-0.8031503790981819,0.039690548936363756,0.6701287988056365,6.771539956927273
2.271451208,-0.7106554381709091,-0.026713525718181686,0.5764679230601819,6.697087218581819
2.281468208,-0.5850886747345454,-0.11277352608181807,0.4975863832292728,6.587845976945455
2.291485208,-0.43206059322545454,-0.23612041269636352,0.43046595156563644,6.442834652436363
2.301501208,-0.2578888257709091,-0.3773179344111999,0.37528907182345456,6.290422144290909
2.311518208,-0.08060701997090909,-0.5176814199057453,0.32736037933800005,6.138197216345455
2.321535208,0.07015294784727272,-0.6307043668857454,0.28062478329800006,5.989736912327272
2.331551208,0.1962460856109091,-0.7000666648857453,0.23646838080709093,5.882684387963637
2.341568208,0.29612337552,-0.7356542120493818,0.1966999840845273,5.8196171218
2.351585208,0.3593795723945455,-0.7463371175766544,0.1573211235481637,5.7939944084363635
2.361601208,0.3684038235021818,-0.7413023672311999,0.12187984182452728,5.806406471163636
2.371618208,0.34055776594763637,-0.7164318839584726,0.10076002047907276,5.825632669309091
2.381634208,0.2666115409076364,-0.6605202550493818,0.10284341266089095,5.790075078090909
2.391651208,0.15703970666218184,-0.572074059122109,0.13413254933361823,5.689064334109091
2.401668208,0.03164193570127275,-0.4643211650875636,0.2040523607336182,5.5370990866000005
2.411684208,-0.0804454773641818,-0.3557611851871999,0.30418987298816363,5.367834330781818
2.421701208,-0.18927125906054543,-0.2771931903271999,0.3762440563154364,5.231816446454546
2.431718208,-0.30640064777872716,-0.24828181325447263,0.41187701242452734,5.128575428836363
2.441734208,-0.4229778261169091,-0.25296787819992717,0.42313798962452737,5.048683473690908
2.451751208,-0.5205380265714544,-0.26429643327265445,0.4052306524790728,5.001047631090909
2.461768208,-0.5929725101532726,-0.27059144994538176,0.37495814462452726,4.9713206184
2.471784208,-0.6329554837350908,-0.27827861427265443,0.34873588078816364,4.957249698054547
2.481801208,-0.6405126804078182,-0.28987417447265446,0.32204251209725454,4.966233233072727
2.491817208,-0.6040318913169089,-0.30071718739992714,0.29092562375725456,5.013601538600001
2.501834208,-0.5193497394623636,-0.2907646416362908,0.2576925642845273,5.070117565818181
2.511851208,-0.4026825259532727,-0.255143786618109,0.22886016184816366,5.097629526381819
2.521867208,-0.27748273642599997,-0.1937198493271999,0.24126701790270907,5.083306581727273
2.531884208,-0.16780340808418176,-0.11455018661810899,0.22356260039361822,5.067721388636364
2.541901208,-0.03975264910236358,-0.03596881758174537,0.13435524050270908,5.058550175872727
2.551917208,0.14127801393400005,0.02281342210916372,0.06233294310998184,5.06441053930909
2.561934208,0.39212509633400006,0.016715998781891,-0.0009773431681999835,5.085071281545455
2.571951208,0.7058723678794546,-0.09558230807265446,-0.09055333811365451,5.051726727599999
2.581967208,1.0177958183703637,-0.2666058495817454,-0.14167715786092724,4.920727697581818
2.591984208,1.272776967315818,-0.4490614099817453,-0.18178353161183636,4.746355743763636
2.602000208,1.4645054489339997,-0.6071972735635637,-0.3017184296845636,4.617334866454546
2.612017208,1.5911493279703637,-0.7029199891635636,-0.49709662373910907,4.499386207945455
2.622034208,1.6581300171541817,-0.7086978143090181,-0.6485550740300181,4.384381549872727
2.632050208,1.6781250494814546,-0.6496884368726545,-0.7328914534482,4.283647801054546
2.642067208,1.706817615754182,-0.6053937689817454,-0.8002005920300181,4.198340319981818
2.652084208,1.7506635390796363,-0.6242485198362909,-0.8523616467027455,4.167233918490909
2.662100208,1.759755807926909,-0.6764754141453817,-0.8655428442118362,4.191257149909091
2.672117208,1.7584201709814544,-0.7383016611453816,-0.8379498548118363,4.250623260618181
2.682134208,1.7549710592541818,-0.8310299963453818,-0.8085741237754727,4.3301284870181815
2.692150208,1.7612452771305456,-0.9533570328617454,-0.8054937680481999,4.412712089472727
2.702167208,1.7785750276341818,-1.0943567804744727,-0.8491520356031091,4.490437491236364
2.712184208,1.7810169936614546,-1.2286332825872,-0.928659962403109,4.565390051472727
2.722200208,1.7480295637650907,-1.337241422276291,-1.0120235857303819,4.629854681018182
2.732217208,1.6763798203796365,-1.4164896715672,-1.0676108350285636,4.688149361218183
2.742233208,1.5793398320723635,-1.4670660138562908,-1.0802220486103817,4.745519386472727
2.752250208,1.467385793326909,-1.4856302644126544,-0.9836642974467453,4.8045890404727265
2.762267208,1.3209667399269092,-1.4961843929799272,-0.7423484317194728,4.735920694345454
2.772283208,1.1889452856359999,-1.4912727956162908,-0.6383931660467453,4.779049701036363
2.782300208,1.0580785660723635,-1.473696958398109,-0.6136858679376546,4.815120638763637
2.792317208,0.9330776669450909,-1.441240999198109,-0.6057817506467454,4.842570220600001
2.802333208,0.832850607236,-1.3930227751981088,-0.5796261002014728,4.889635088290909
2.812350208,0.742349681126909,-1.3526239157435636,-0.5038283407105637,4.93652340969091
2.822366208,0.6659373739450908,-1.318262593489018,-0.42599039731056365,4.9717877444
2.832383208,0.6061489427269091,-1.2733771867253818,-0.3752382730978363,5.009956420672728
2.842400208,0.5392508527632728,-1.2000008708562908,-0.3448219835251091,5.062218318472726
2.852416208,0.45406747759963634,-1.102624435086909,-0.31955128891019996,5.124098166745455
2.862433208,0.3658064629814545,-0.9981808524832727,-0.2843096244974727,5.195954362254546
2.872450208,0.2779857543450909,-0.9006486149941818,-0.24979450187565452,5.292987419327273
2.882466208,0.1779786615632727,-0.8154484211032726,-0.21432805853019998,5.394146343381818
2.892483208,0.06992418409054543,-0.7363994342850909,-0.17036962149854543,5.496380094418182
2.902500208,-0.03942207354763638,-0.6617268332305454,-0.11407328301672727,5.602323635545455
2.912515333,-0.13586767377345454,-0.5856174862305454,-0.03548758703490909,5.7086044963818185
2.922532333,-0.2285128742007273,-0.5011283669214545,0.061641306856000014,5.8150426915636375
2.932548333,-0.31389256997890913,-0.418089888666909,0.15800921220145456,5.9162148886727275
2.942565333,-0.39032285567890906,-0.3438850967578181,0.2421920596741818,6.004003200327272
2.952582333,-0.4469964830452727,-0.27826506993781813,0.32024549691054544,6.071612595727274
2.962598333,-0.4833455031252727,-0.224303774510909,0.38761113554690907,6.114788151054546
2.972615333,-0.4970540390834546,-0.18707878371636352,0.43022735219600006,6.119686792036363
2.982632333,-0.47122023169254545,-0.1721036710799999,0.42479786959599997,6.126199281490909
2.992648333,-0.37385981064527274,-0.198775777170909,0.35155032005054554,6.237529290745455
3.002665333,-0.22764762908163638,-0.2815664398072726,0.2540509279778182,6.419603654945455
3.012682333,-0.10172603799072726,-0.3894439539527272,0.19277151257781816,6.5858400854
3.022698333,-0.03305143633618184,-0.4665749370799999,0.20191722763236364,6.674308589363636
3.032715333,-0.0018040381361818382,-0.4989725729527272,0.200276695596,6.714726175690909
3.042731333,0.022459142681999982,-0.5091199479345453,0.15488858775963638,6.762647460545454
3.052748333,0.04508891442745454,-0.5258508837527271,0.11989855161418185,6.805568164472726
3.062765333,0.03875742704563635,-0.5434174504799999,0.13247080414145457,6.801681717436364
3.072781333,-0.0033906535543636583,-0.5332926351163636,0.16468498628690914,6.750995046599999
3.082798333,-0.0792424306998182,-0.49794503642545446,0.1860669728687273,6.670324167854546
3.092815333,-0.18775938039872728,-0.48204528762545445,0.18673888705054548,6.607376592545455
3.102831333,-0.29551811100781816,-0.5224589777527272,0.16694600359600004,6.597692561145455
3.112848333,-0.371223532335091,-0.6195499524254545,0.15411122172327277,6.634982785018182
3.122865333,-0.4220426031714546,-0.7458109744618182,0.21860112528690914,6.693900230418182
3.132881333,-0.483741269226,-0.8574924213163636,0.36148711821418184,6.7688850082545455
3.142898333,-0.5903072316441819,-0.8931326890981818,0.5462267365960001,6.858886653163636
3.152914333,-0.7643295469169091,-0.8105596279345455,0.7536682999778181,6.995845418836364
3.162931333,-0.9858603511714544,-0.6272806200981818,0.8338230697050909,7.158371028436364
3.172948333,-1.2062503018825455,-0.3940712809890909,0.7234103310869092,7.4079347195272724
3.182964333,-1.3637610768461819,-0.19739973600727267,0.6542000022323635,7.610841882999999
3.192981333,-1.4569749621916366,-0.027875526916363583,0.7391535286687272,7.76671686110909
3.202998333,-1.5468944836989094,0.14374429237454553,0.8089325630323636,7.835828517109091
3.213014333,-1.6436597764552725,0.18351487381090917,0.8242130385414544,7.861525467345455
3.223031333,-1.7156045876189092,0.1494539708654546,0.8163646080141818,7.905865024945455
3.233048333,-1.7730702974552728,0.11352531839272735,0.8138456062505455,7.948455529690909
3.243064333,-1.8323646575498185,0.09942925488363644,0.8356169376505453,7.986009643436364
3.253081333,-1.8626083532534545,0.113617374829091,0.9000706256781817,7.994527400363636
3.263097333,-1.859844249497091,0.15193132981090918,0.9883137637509091,7.966739816254544
3.273114333,-1.8236303326480001,0.2141402717563637,1.0812074794963635,7.917627194981819
3.283131333,-1.7575916637825453,0.2864205748872728,1.155323173121818,7.87708612849091
3.293147333,-1.6833148488007272,0.3535288244145455,1.1926947934854546,7.8465833785272725
3.303164333,-1.6141095113280002,0.4004988379818183,1.1879967630127273,7.815587434418182
3.313181333,-1.5413146691649093,0.42734613729454557,1.1664820924854544,7.7750125960363645
3.323197333,-1.4649428074431818,0.43305517793090914,1.1174266136309092,7.704510023745455
3.333214333,-1.3973855037177274,0.4108922106763637,0.9634780102854545,7.7067700988909085
3.343231333,-1.3298924701957273,0.355018843829091,0.8983688812672725,7.64135268970909
3.353247333,-1.2564127649211818,0.2824355060952728,0.915049007430909,7.590945282854546
3.363264333,-1.184672877413909,0.20961168832618188,0.9090332803399999,7.517712251018182
3.373280333,-1.130827404023,0.14349184150800007,0.8860621428127273,7.441666571018182
3.383297333,-1.0926016808611818,0.08114697836254552,0.8426573015472727,7.375610008836363
3.393314333,-1.0494346485175454,0.024481728417090974,0.7753014809109091,7.334204818436364
3.403330333,-0.9914900703175454,-0.035491078801090856,0.696016410110909,7.295439863236363
3.413347333,-0.9211949580266363,-0.11448313500109086,0.6184230238563636,7.231063218563636
3.423364333,-0.8277539535357272,-0.20716096089927266,0.5603284964727272,7.143676607018182
3.433380333,-0.7246039584266364,-0.29760897768109085,0.5167587052636363,7.040612784872727
3.443397333,-0.6134410266993636,-0.3885922485901818,0.4842404413381817,6.93154373410909
3.453414333,-0.4832994203539091,-0.48162547889927265,0.46025579528363636,6.823956084163637
3.463430333,-0.33697443271754546,-0.5733672825174545,0.43882225221090904,6.724357895654546
3.473447333,-0.19901506713572728,-0.6682104067901818,0.4077842561018181,6.621238201345454
3.483463333,-0.0811233430084545,-0.7606008792447272,0.37089106024727264,6.514228493236363
3.493480333,0.011785742918818204,-0.8376668413538181,0.3280292392672727,6.411290179163637
3.503497333,0.07505211261881821,-0.9062521932265455,0.2587453125581818,6.335275673690909
3.513513333,0.11304712523336365,-0.9700243723265455,0.18359665513999995,6.3005791235999995
3.523530333,0.1359957549559091,-1.0172034504174545,0.12958967967272722,6.309009322909091
3.533547333,0.11639303159590911,-1.0283273104192727,0.1047599408727272,6.329314700272727
3.543563333,0.01766294413590911,-0.9732921897740235,0.13320265829090905,6.255207094781818
3.553580333,-0.12636711370045453,-0.8420848167412963,0.1985998636727272,6.096580806109091
3.563597333,-0.23209945451863634,-0.68616726983766,0.24714570716363635,5.941661212672727
3.573613333,-0.2765525553731818,-0.579719368026751,0.2412850748,5.858384426145455
3.583630333,-0.2958166166459091,-0.5513036753722055,0.2512759836181818,5.825108629800001
3.593646333,-0.3127784483913636,-0.5741126004994781,0.3026349438363636,5.795724402927273
3.603663333,-0.32369462591863635,-0.5972376580085691,0.34604189276363634,5.774647653909091
3.613680333,-0.3042977159004545,-0.6053067518267509,0.3424902886545454,5.794683977927272
3.623696333,-0.24706175644590905,-0.6191899872994782,0.3101568179999999,5.858949065054546
3.633713333,-0.15997942357318182,-0.6466418461722054,0.28183964030909087,5.948257405363637
3.643730333,-0.05204749311063637,-0.6520508289540237,0.27630651050909083,6.00819496990909
3.653746333,0.03790459473481819,-0.6029584674812963,0.2951004503272726,6.0007990332545456
3.663763333,0.07934116488027274,-0.5012957249903872,0.2927438363636363,5.942691773581817
3.673780333,0.08666683837118183,-0.3798971411903872,0.19861629967272723,5.865703818236364
3.683796333,0.13278005409845456,-0.28414243600856903,0.028776085781818155,5.7988889348727275
3.693813333,0.2556212735166364,-0.2518097680267508,-0.17030688283636367,5.729970185309091
3.703829333,0.44961905688027276,-0.30267848173038725,-0.37377293492727276,5.590382614272728
3.713846333,0.6861471852257274,-0.43357049847947815,-0.4692156645818182,5.423273736272727
3.723863333,0.9489482276257274,-0.6192489909940236,-0.41101042812727273,5.187644971454547
3.733879333,1.2039378337348183,-0.8129590169212964,-0.3947365053690909,4.996815902145455
3.743896333,1.3727272338802725,-0.9728018422122054,-0.4947997579872727,4.840547473454547
3.753913333,1.4931417258984545,-1.07250239735766,-0.5385728542236363,4.7529719818
3.763929333,1.6372474347166366,-1.0363852519212964,-0.54285857626,4.69151445310909
3.773946333,1.7649262257348182,-0.9794113008849327,-0.562163573350909,4.612638763727273
3.783963333,1.861401074003909,-0.9411289314849326,-0.5566353817872728,4.569434884418182
3.793979333,1.9372512657457273,-0.9203892190303872,-0.5224588953509092,4.557217831272727
3.803996333,1.975699933922818,-0.9327334354667508,-0.5016519292781819,4.572904407872728
3.814012333,1.9873500778857272,-0.9965719219940237,-0.5276704654963636,4.622675309945454
3.824029333,1.982116348113,-1.1089745219031144,-0.5948038819763636,4.706130052036364
3.834046333,1.9443218411566363,-1.2392126498340237,-0.6742546137036363,4.7805943034909095
3.844062333,1.8859236399566364,-1.3581469085794782,-0.7552077356636364,4.8314817268909085
3.854079333,1.8139452445202726,-1.45426103679766,-0.8186880430192727,4.859408814218182
3.864096333,1.7372170548117272,-1.5159626105431145,-0.8463541943647271,4.878123821290908
3.874112333,1.6729719675263637,-1.5417895813522053,-0.8242357111101818,4.919421858745454
3.884129333,1.6220441929645455,-1.544412769879478,-0.6556962050374546,4.906377498909091
3.894146333,1.5436297406789092,-1.5161902267231147,-0.5541234139647273,4.985180970254546
3.904162333,1.4327518075498185,-1.4637907013347509,-0.5312119180374545,5.066373356927273
3.914179,1.3284726433334548,-1.4090435720202052,-0.497136747892,5.1625660384181815
3.924195,1.2349685945789093,-1.36922142876566,-0.47794864992836367,5.242693757054545
3.934212,1.1369975953261817,-1.3378548164747508,-0.46184666985745454,5.310957396509091
3.944229,1.0523915636007273,-1.298340757692933,-0.40019194827563637,5.356375058254546
3.954245,0.9694166764552726,-1.2629868652565692,-0.31312600887563635,5.389630325527272
3.964262,0.8807569641280001,-1.2098915105656598,-0.22706817196654547,5.4452026284363635
3.974279,0.7987823442189091,-1.1453256835583872,-0.1633893941647273,5.506881441909091
3.984295,0.729156334128,-1.0891887029583873,-0.11606433766472729,5.568122438309091
3.994312,0.661248600128,-1.0351144180492964,-0.0807059801029091,5.628498985600001
4.004328,0.5678717980734546,-0.9725274376492963,-0.049027158393818195,5.696080683763637
4.014345,0.4376261112734545,-0.9054645093583873,-0.01819826668472728,5.771218964872728
4.024362,0.29967556967345454,-0.8320849190492963,0.020766565787999996,5.861529303654545
4.034378,0.167092886328,-0.7550814052129327,0.06751401040618181,5.969818876327273
4.044395,0.044534515346181795,-0.6796627632311145,0.12278665824072725,6.0946005417454545
4.054412,-0.06230518844472728,-0.6023683769947509,0.1975641131498182,6.206099635327273
4.064428,-0.15127845438654547,-0.5232912066038419,0.275639052168,6.285410932327272
4.074445,-0.22915231165454547,-0.4525894922402054,0.35125253665890904,6.337721765090908
4.084462,-0.2883935345127273,-0.4060638776929327,0.4374393524952727,6.339830297454545
4.094478,-0.3148228854709091,-0.394435243510909,0.5331708389245454,6.271068837
4.104495,-0.31571991878,-0.4100819141890909,0.6042620416518181,6.203278902199999
4.114511,-0.31642325377999997,-0.4559149951472727,0.5987052040518182,6.214254770981818
4.124528,-0.29910263688909094,-0.5182160466854545,0.5163906855063637,6.302639312599999
4.134545,-0.25571350603454546,-0.5717034412490909,0.39379094547,6.4295166016181815
4.144561,-0.22800739427090913,-0.6004569541218181,0.3035657979609091,6.512189322509092
4.154578,-0.22456650985272733,-0.5969560879036364,0.30580335728818187,6.512001168581818
4.164595,-0.23393481245272732,-0.5670739986127272,0.3562838584045455,6.477848121981819
4.174611,-0.25310855550727274,-0.5354152275399999,0.389155124059091,6.439031561218182
4.184628,-0.2703193988890909,-0.5058029925763636,0.40604231875,6.4081443872
4.194645,-0.2972360727436364,-0.4694802803218181,0.44456415820454553,6.357603299018182
4.204661,-0.34026444634363634,-0.40182732544363636,0.5146494803609091,6.275394133381819
4.214678,-0.4069037544890909,-0.29859457362545455,0.5934392494754546,6.167552639999999
4.224694,-0.49883002180727276,-0.19871919735272725,0.6510496327172728,6.055269625109091
4.234711,-0.5869029633763636,-0.15286447106909087,0.6745836072809092,5.979932461
4.244728,-0.6294778216309092,-0.18246056770545452,0.6740086877718181,5.975509966981818
4.254744,-0.6469679546127273,-0.2515388079654545,0.72335918787,5.9929291931454545
4.264761,-0.7064770723109091,-0.3106699456890909,0.864865314979091,6.035047825418181
4.274778,-0.8124487954927273,-0.38089583492,0.9946385414336363,6.091234754818181
4.284794,-0.9236514617109091,-0.47626073282909087,0.9941953384336365,6.151647139690909
4.294811,-1.0463983442563636,-0.5530176217381817,0.950338797099091,6.214852031309091
4.304828,-1.21775098302,-0.5566617447381818,0.8628336573681818,6.272670350145455
4.314844,-1.4281023707472729,-0.46621835257454536,0.726808593259091,6.354467354254545
4.324861,-1.6199336331472727,-0.31121108955636356,0.654483128359091,6.403634183236363
4.334877,-1.7674409277981817,-0.16387512897454545,0.6568959021772727,6.41704435570909
4.344894,-1.8744253953763634,-0.032912892485454516,0.66303637165,6.409473932490909
4.354911,-1.965236517608,0.09255415199818184,0.6878712825954546,6.398768778472728
4.364927,-2.045641133527273,0.21055815061636368,0.7741688075045455,6.3934073709636365
4.374944,-2.10580133204,0.3119932025436364,0.890170615839091,6.380040907290909
4.384961,-2.1380181400945455,0.39985201907090906,0.9986383572390909,6.369327240963636
4.394977,-2.1445723691854544,0.4738775884890909,1.092765298580909,6.359876917999999
4.404994,-2.1223889738763635,0.5204570930927274,1.1491673228274546,6.341329723945454
4.415011,-2.082113846821818,0.5293130733036364,1.1541642443547273,6.308055284309091
4.425027,-2.03909677164,0.517405314309091,1.132920353082,6.262965858690909
4.435044,-1.9970283194945455,0.49920974664800005,1.0964153777910908,6.2064045220363635
4.44506,-1.9480034029854545,0.4686492953098182,1.0572205982456364,6.138803404072727
4.455077,-1.8814700437309093,0.41824646649127273,1.0299186938820002,6.059994429527272
4.465094,-1.804171637529091,0.3510406854167273,1.008783007972909,5.978016682145455
4.47511,-1.724607590758182,0.2768114308894546,1.011572020882,5.911800715090909
4.485127,-1.6232023622854546,0.2043818111312728,0.9915245097892729,5.838584946963636
4.495144,-1.515266134121818,0.13492057824218184,0.8744924672438181,5.842485290563636
4.50516,-1.4161597065763638,0.07628038336218186,0.8282665756656364,5.78031458569091
4.515177,-1.328466408758182,0.014762210205818225,0.8213428716656364,5.722024030872728
4.525194,-1.2460792731036365,-0.04603004708509086,0.8061161852292729,5.669938061836364
4.53521,-1.166164956830909,-0.1026621380123636,0.7827123218474547,5.620840571963636
4.545227,-1.0925567457036365,-0.16557798706690904,0.7333796836638182,5.557105389727272
4.555243,-0.999758764830909,-0.24410381819418178,0.6540047305183637,5.483389478836363
4.56526,-0.8797563606490908,-0.3342760590323636,0.5730564192092727,5.388993518781818
4.575277,-0.7452387937763636,-0.4226962082687272,0.499531258491091,5.284141352236363
4.585293,-0.600105245430909,-0.5058129116505454,0.43597193796563644,5.179740230509091
4.59531,-0.4477338434490909,-0.5722510064687273,0.37746820779909096,5.083338267199999
4.605327,-0.30466505859454546,-0.6222350577050909,0.3188044539645455,5.000423652672726
4.615343,-0.17313812459454542,-0.6550219586687273,0.26698398233000004,4.936799514254546
4.62536,-0.06647865988545454,-0.6684739566869091,0.2160245291372728,4.890422975763637
4.635377,0.01089743187818183,-0.6563674348869091,0.18019241155727275,4.8724863454181815
4.645393,0.049712832112727284,-0.6222319320959999,0.16732233641527278,4.89603131030909
4.65541,0.04118851927454547,-0.5761834078323635,0.18370134958981824,4.9028865840909095
4.665426,-0.00048549432727271544,-0.5056772668687273,0.253473322117091,4.831114171018181
4.675443,-0.08284187362363635,-0.4095988917232727,0.3652595590625455,4.683644878472727
4.68546,-0.20176976571418181,-0.3041510445141818,0.48932572762618187,4.499060042454546
4.695476,-0.31449915455054545,-0.21359835193963636,0.5573443088989091,4.367749989581818
4.705493,-0.40582711317236364,-0.16700285784872726,0.5164483457352728,4.333780258472728
4.71551,-0.4757597087178182,-0.16055442084872726,0.4346482705280001,4.330491140072727
4.725526,-0.5230107128814546,-0.169197551776,0.396744402037091,4.316320418072727
4.735543,-0.5535320729359999,-0.1867486605941818,0.39514008020072733,4.298044568527272
4.74556,-0.5551496732632727,-0.2144429343941818,0.37460409005527284,4.314518304127272
4.755576,-0.523643355045091,-0.26242736545418177,0.3177275536261819,4.372616987963636
4.765593,-0.459686504936,-0.3295550489996364,0.25135489445709097,4.455149337927272
4.775609,-0.365879900636,-0.3901202960905455,0.21277298816072737,4.540810349763636
4.785626,-0.265953478176,-0.4160741833741818,0.20638185917890917,4.607342866272727
4.795643,-0.192085958976,-0.3945898652105454,0.20956505148800006,4.637383512018182
4.805659,-0.13286532164872733,-0.3603628056650909,0.1463032811534546,4.670614376327272
4.815676,-0.021395023059636403,-0.3519110488105454,-0.004118930228363576,4.686084192018182
4.825693,0.13822555488581814,-0.33381274691963636,-0.1383150756465454,4.687884101836364
4.835709,0.2773301401767272,-0.27581765939236363,-0.17785718511381812,4.681413038072727
4.845726,0.4362742750130909,-0.21644560575600003,-0.21834004248836358,4.6633636060727275
4.855743,0.6402037827403636,-0.2040221861341818,-0.27494719768472725,4.6055013629090915
4.865759,0.8639071917403636,-0.2355868808069091,-0.3148648525574545,4.50450711390909
4.875776,1.0784032188312727,-0.27709715775236365,-0.41511953238472726,4.4319972124545455
4.885792,1.277969183413091,-0.30449715713781816,-0.590146577402909,4.357008931909091
4.895809,1.4569389368494545,-0.33672338453600004,-0.7429023115483637,4.279952988272727
4.905826,1.6130712466676362,-0.3809352345832728,-0.859217634302909,4.215348931345455
4.915841375,1.6998696639985453,-0.39403829201963636,-0.9077574126483636,4.1498779006
4.925858375,1.7586398092494544,-0.37987485794690906,-0.8931207049574544,4.138243442254545
4.935875375,1.8499745469785454,-0.4343944986741819,-0.9268970079756362,4.122469667090909
4.945891375,1.936105115282182,-0.557350716856,-0.9592416999574546,4.1651245474181815
4.955908375,1.9868870629512727,-0.6862760172960001,-0.9448293977756363,4.2432729155818185
4.965925375,2.013829586822182,-0.8227718885796363,-0.8983024437029091,4.362076463563636
4.975941375,2.0189912855403636,-0.9750283768305453,-0.8549259481574546,4.503458038
4.985958375,2.024887293549454,-1.1258162146058182,-0.8621636954847272,4.620711689563636
4.995974375,2.0404552102021816,-1.2640747981585456,-0.9073888068719999,4.714627043618181
5.005991375,2.037720698674909,-1.3769885935581818,-0.9744254758538181,4.786779949327272
5.016008375,2.0035202692003637,-1.4474915025927273,-1.0390120551447273,4.831453534236364
5.026024375,1.9411819336840002,-1.4865330425745453,-1.0610561857265455,4.874496959763635
5.036041375,1.8625258877385453,-1.4996178992345455,-0.9898638686938181,4.935341155854545
5.046058375,1.7757874216294545,-1.507877644170909,-0.8193940797665453,4.9179453309818175
5.056074375,1.6725733941930907,-1.519973619721818,-0.7466149772429089,4.967980609345455
5.066091375,1.5770663132658183,-1.5238200351218183,-0.7385342102610909,5.002580687836363
5.076108375,1.4836651974294546,-1.5279319991545453,-0.7345911244429091,5.019881632690909
5.086124375,1.3773879811567271,-1.5336210635727272,-0.7358723929156362,5.037665670654546
5.096141375,1.2637892535385455,-1.5146621047,-0.7183620697592727,5.084873374745454
5.106157375,1.165370588774909,-1.4750622300454546,-0.660197479432,5.124591402818182
5.116174375,1.0840419081203634,-1.4239868332072727,-0.5847725543410909,5.168538282472727
5.126191375,0.9780345408476363,-1.3736879466254543,-0.5185088859501817,5.227984142854545
5.136207375,0.8618269291203635,-1.3162485253163636,-0.4608366484610909,5.295514474836364
5.146224375,0.7524577317930908,-1.2591649655709092,-0.3968021539672727,5.362931236163636
5.156241375,0.6423794479385453,-1.1992748911527273,-0.31820253631454537,5.440916070599999
5.166257375,0.5168134632476363,-1.1308547922254544,-0.2390430730072727,5.534145475345454
5.176274375,0.37574158757490905,-1.0584129996254545,-0.1529869304690909,5.653417793054545
5.186291375,0.222984669374909,-0.9902292876800001,-0.06623822643454541,5.790677401672727
5.196307375,0.06792834423127264,-0.9202005984618182,0.016271618350909144,5.93557941890909
5.206324375,-0.07728698007600007,-0.8426374422981818,0.09513443514000004,6.078511466781819
5.216340375,-0.20536251663781827,-0.763266295170909,0.17088898637636368,6.209724864163636
5.226357375,-0.3096879270141819,-0.6839801771709091,0.2439258633945455,6.325120661290909
5.236374375,-0.3866619853418182,-0.61018741198,0.32220118384909097,6.409378157
5.246390375,-0.43387619059636373,-0.5463787675181818,0.4126249878309092,6.430457464454546
5.256407375,-0.44926954693454546,-0.48475448335454546,0.502920955752,6.3841048502909095
5.266424375,-0.45362169599636376,-0.43975079274181816,0.5564719414429091,6.331652583054546
5.276440375,-0.4465528959963637,-0.4217444090854545,0.5427872827156364,6.341588126145456
5.286457375,-0.408067373069091,-0.43491939792181816,0.46087575958836363,6.425809352454546
5.296474375,-0.35342786441454555,-0.4806091370490909,0.3542207493883637,6.5459501463090914
5.306490375,-0.3114710834509092,-0.5274769306490908,0.296681866952,6.627862801636363
5.316507375,-0.2910396149418183,-0.5441779818854545,0.3169267561338182,6.6432162854
5.326523375,-0.2812580630327274,-0.5306967584309091,0.35730345464472735,6.634913504563636
5.336540375,-0.2856000884327274,-0.5065243263945455,0.3753059844629091,6.616832338981819
5.346557375,-0.2841481928872728,-0.4931385295036364,0.37677189206290906,6.613037385781819
5.356573375,-0.26602318517818196,-0.4881135918490909,0.39492379166290914,6.619196226745455
5.366590375,-0.26369788572363645,-0.4752621453945455,0.42680257751745454,6.603751410109091
5.376607375,-0.2869010567054547,-0.45057327664909097,0.4449345274629091,6.566690648581819
5.386623375,-0.3305946627236365,-0.4312482183036364,0.45450817895381823,6.522113850472728
5.396640375,-0.3858358073600001,-0.44894861184909096,0.47257215237200006,6.489863789909091
5.406657375,-0.4021036968509092,-0.5140124408890909,0.5065869792447273,6.493877557690909
5.416673375,-0.39083534683272736,-0.6069935459254545,0.5894802498883638,6.494480336363636
5.426690375,-0.43035855385636373,-0.68313273498,0.763900672852,6.492978177072727
5.436706375,-0.5553176507109092,-0.7292352875218182,0.9746607756338181,6.555778672381818
5.446723375,-0.7053943341836365,-0.7518090589036364,1.1110108386156363,6.609871070109091
5.456740375,-0.836763659129091,-0.7395220920309091,1.1126206515047274,6.6059796733636365
5.466756375,-0.9476373968781819,-0.703995440969091,1.000589806941091,6.645059666945455
5.476773375,-1.10661513062,-0.6473197617327273,0.8395669497410908,6.705342932872727
5.486790375,-1.3024987911309092,-0.5087881876418181,0.7818657326596364,6.78442802509091
5.496806375,-1.4489708282709093,-0.3316934183327272,0.8309166639687274,6.79945088209091
5.506823375,-1.5468217350309093,-0.17631698339636365,0.8705959438050909,6.791969873999999
5.516840375,-1.6304044774472728,-0.03944032016727273,0.8848166486960001,6.754690210509091
5.526856375,-1.6933781368563638,0.07058646035999999,0.9088463874050909,6.7111697372000005
5.536873375,-1.7411478528472726,0.1398543417781818,0.9797080922414546,6.696296936890909
5.546889375,-1.7913663428818183,0.1991428653054545,1.0881011846287272,6.6965409868
5.556906375,-1.8225034519545456,0.27932290561454537,1.1990118515196364,6.684548954836364
5.566923375,-1.8246148071000001,0.36127837322181816,1.2748373533923636,6.6690705201090905
5.576939375,-1.807783182227273,0.4296192158127273,1.2926408918105452,6.645996103090909
5.586956375,-1.7910408815545455,0.4714069697181818,1.257870283065091,6.608761328163636
5.596973375,-1.7739353624636365,0.48634124753454544,1.1981298535014546,6.554984399763637
5.606989375,-1.7122516758927275,0.4908473351745455,1.1496757647741818,6.478715145523638
5.617006375,-1.6333597944636364,0.48764194470909084,1.1120629892814546,6.4102395676181825
5.627023375,-1.5624491550909092,0.4709722132872727,1.0923793690305454,6.362030569727272
5.637039375,-1.4977069016540001,0.43983352547818183,1.0904910957941818,6.310784489563637
5.647056375,-1.4325755332867274,0.3849951370636363,1.073908479912909,6.234269525209091
5.657073375,-1.3885681590340002,0.33807363412727265,0.9874502123856365,6.2026052694454545
5.667089375,-1.333037446994,0.30750260463636364,0.918471714982,6.151382637590909
5.677106375,-1.2356265073394546,0.27697896949090905,0.903990394382,6.110255550863637
5.687122375,-1.1233592013576366,0.2312662029636363,0.8863685661456363,6.059624840081819
5.697139375,-1.0178054025940002,0.16851642547272722,0.8443680905456363,5.990966898918183
5.707156375,-0.9138979511940001,0.09778166901818176,0.7847963338947274,5.901208580136364
5.717172375,-0.7965033068485456,0.01793910872727268,0.710199720071091,5.793609850536364
5.727189375,-0.655357873212182,-0.07283021787272731,0.6160979908529091,5.66680670719091
5.737206375,-0.4896025799940001,-0.16687168887454548,0.5171144372347273,5.525919683118182
5.747222375,-0.3060350067394546,-0.26301659471090916,0.43277105578745456,5.381285324990909
5.757239375,-0.12140033259400008,-0.35409623836545456,0.3658896131092727,5.250649947154545
5.767255375,0.04924831202418171,-0.4365837813290909,0.3077547545492727,5.140985852354546
5.777272375,0.19709748273327263,-0.5094615104381818,0.25459660608563633,5.051487601336363
5.787289375,0.3188884438787271,-0.5652283835290909,0.20511954564563636,4.982651630427273
5.797305375,0.40161492004236354,-0.5981474102927273,0.162365244342,4.9436247454454545
5.807322375,0.4379180707114544,-0.6147112858381818,0.1415506742390909,4.9400347283
5.817339375,0.4393642705314544,-0.6116145791600001,0.15917273369363635,4.930360557772727
5.827355375,0.39911514762963624,-0.5857955286745454,0.2210866410881818,4.859293116536364
5.837372375,0.3010604404878181,-0.5306998308781818,0.33122265823363634,4.7059586441727275
5.847389375,0.1634782881059999,-0.4415124525181819,0.45448495157909086,4.511711480809091
5.857405375,0.025608380942363534,-0.3515877509072728,0.5189328243063637,4.361430410718182
5.867422375,-0.09012636926127283,-0.30383973871454545,0.4926919344154545,4.2950272555909095
5.877438375,-0.1773006309976365,-0.30564709180545463,0.43728358599545447,4.266651864827272
5.887455375,-0.23466597605218192,-0.32678785946000005,0.4133055207227273,4.246619878590909
5.897472375,-0.28978402616127286,-0.34417214189636364,0.4199381450136363,4.210200834245454
5.907488375,-0.3420631626885456,-0.3519088055509091,0.41914437219545453,4.171581888118182
5.917505958,-0.357267576543091,-0.3564350182418182,0.41268402281363636,4.1624020449
5.927522958,-0.3355143661976364,-0.3615962385509091,0.4241601137772727,4.178600690281819
5.937538958,-0.2872754430340001,-0.36043998886000006,0.4396734094681818,4.208301557154545
5.947555958,-0.2289660410885456,-0.3407368388963637,0.4332799416136363,4.237177794354546
5.957572958,-0.18581397230672736,-0.3174432327509091,0.4123598797772727,4.2584198253
5.967588958,-0.1564899306703637,-0.2994884959509091,0.34946488402454545,4.282611645227273
5.977605958,-0.09019705410127284,-0.303196342969091,0.1994129023881818,4.2952770416636366
5.987621958,0.042837818335090816,-0.32875023816909094,0.0018265445699999832,4.252997652827273
5.997638958,0.18904888628054536,-0.35165856596909095,-0.1380957685027273,4.219745862318182
6.007655958,0.31371663764418173,-0.36490586891454546,-0.16026219360090913,4.2230203813
6.017671958,0.4673987408623635,-0.3837987117218182,-0.14382694881909094,4.170327644409091
6.027688958,0.6785343677896363,-0.4148725273327273,-0.15623044540090913,4.058021639663636
6.037705958,0.904698646516909,-0.46790270151272734,-0.2581539949921819,3.982329338027273
6.047721958,1.1034188644987273,-0.5227215814945455,-0.46126439817400006,3.9425974545363633
6.057738958,1.265328260607818,-0.5667883674309091,-0.6265611022467273,3.8747044743363634
6.067755958,1.3983825484623635,-0.5847222881327273,-0.7282905349194545,3.7897274965363636
6.077771958,1.5138176366805454,-0.5845299041145455,-0.8022445982103638,3.722726594190909
6.087788958,1.5845821169332728,-0.5568431360054545,-0.8375345539921819,3.6650918705909095
6.097804958,1.6251703304969092,-0.5166492161509091,-0.8201681321376365,3.647764305463636
6.107821958,1.6761217331405456,-0.5507377604781819,-0.7841339321194547,3.6754851032636364
6.117838958,1.713470812487818,-0.6428986180854546,-0.746169491792182,3.7264646121181815
6.127854958,1.7330005393423638,-0.7550163310218183,-0.7159195275921819,3.7841444699909093
6.137871958,1.749836892506,-0.8794320780181819,-0.7121292109012727,3.8499093045909087
6.147888958,1.761044928496909,-1.024337595590909,-0.7365528379885454,3.9531704535181817
6.157904958,1.7115345548896366,-1.183483124490909,-0.7716654330976365,4.103802162158182
6.167921958,1.6148244053514544,-1.3329357877781818,-0.7953306882758183,4.253997102554545
6.177938958,1.518427538996909,-1.4408804173236363,-0.8380722400067273,4.3722761419
6.187954958,1.4249413302145455,-1.4893112141872729,-0.8758786380612728,4.463852627081819
6.197971958,1.3374862811927273,-1.4973649457690907,-0.8383778048618182,4.556167230145455
6.207987958,1.254230705103636,-1.4992933787527272,-0.6956272414072727,4.630262956018181
6.218004958,1.1549443002636364,-1.500368841189091,-0.5616405273127274,4.736541100727273
6.228021958,1.0431366226454544,-1.4953105531345456,-0.5308282310763637,4.7832339314545465
6.238037958,0.9315365424454545,-1.4727049622618182,-0.5718682456978182,4.801147635690909
6.248054958,0.8407814245727273,-1.428282516770909,-0.6144037973705455,4.830255033
6.258071958,0.7567664453545454,-1.3726583476254544,-0.6251306879069091,4.878444829781818
6.268087958,0.6790931010636363,-1.3110184354436363,-0.6035756210960002,4.935090429945454
6.278104958,0.6021334626090908,-1.2474645807345455,-0.5690814926269092,4.986840149618182
6.288121958,0.5241039777181817,-1.1777719363145454,-0.5258750686505456,5.039356648636364
6.298137958,0.45112962602727263,-1.10197306586,-0.47363554833054555,5.096239478072727
6.308154958,0.3780290116999999,-1.0342284691690908,-0.4180071253432728,5.148086440709091
6.318171958,0.30382090282727264,-0.9729903989145454,-0.3620204912923637,5.193715627436364
6.328187958,0.21479045311818173,-0.9117291098963637,-0.3096075279378182,5.243310221018183
6.338204958,0.10336395813636357,-0.8408658528963636,-0.25793820284327273,5.31781514649091
6.348220958,-0.012133248772727345,-0.7623535766963636,-0.19688549728509094,5.415807567290909
6.358237958,-0.13278229651818188,-0.6841840536418181,-0.13343583730327283,5.523520784472726
6.368254958,-0.2447599712945455,-0.6051776026599999,-0.07889936455781826,5.634573612418182
6.378270958,-0.3337557523381819,-0.5267084789109091,-0.032167300770545526,5.738274669872727
6.388287958,-0.3955370452145455,-0.4533186825618182,0.018164308956727205,5.819823944690909
6.398304958,-0.4252721182145455,-0.39149252061272727,0.08356611239309084,5.863439558381818
6.408320958,-0.4240074359018182,-0.34528155006,0.1657235375203636,5.867595755036363
6.418337958,-0.38910414835272733,-0.3160206370781818,0.24296687224945446,5.836508854181818
6.428353958,-0.3375642540345455,-0.30066357367818175,0.3040231951058181,5.826740621581817
6.438370958,-0.2801495053254546,-0.29176832146,0.3274863492512727,5.850110389363636
6.448387958,-0.22546953925272736,-0.29250933378727273,0.29632142337854533,5.904728390836364
6.458403958,-0.1929713419072728,-0.30836155004181814,0.24200825579672722,5.964726327309091
6.468420958,-0.19162313345272733,-0.32527550371454544,0.1749870553785454,6.010391298945454
6.478437958,-0.2030546739436364,-0.3259631256418182,0.1143972233785454,6.032948431563637
6.488453958,-0.21426903290727278,-0.30768320924181813,0.06461045719672724,6.044028515818182
6.498470958,-0.21976829139818188,-0.2834109705509091,0.025138237905818123,6.054407691290908
6.508487958,-0.24060832079818187,-0.26571994316909087,-0.0023148170032727803,6.048848519490909
6.518503958,-0.2955074883436365,-0.2677766959509091,-0.013553702366909141,6.027444391690909
6.528520958,-0.38127774324363645,-0.28367410585999997,-0.01389682760327278,6.009196889018182
6.538537958,-0.48345972382545466,-0.2867626583327273,-0.014711302221454597,5.987350750818181
6.548553958,-0.572649956698182,-0.2851171242781818,-0.031096258294181865,5.969844264636364
6.558570958,-0.6082870297709091,-0.31868823253272727,-0.04325137843963641,5.9834127941999995
6.568586958,-0.5898316331163637,-0.39854049920545453,0.02824885561490905,6.0504097572181825
6.578603958,-0.5736276855709092,-0.4910054651945454,0.22149899272399998,6.156769455163636
6.588620958,-0.6382923039345455,-0.5437030072145455,0.4584656888149091,6.1918206572
6.598636958,-0.7914096830436366,-0.5377021798854545,0.6103056692512727,6.1646688519636355
6.608653958,-0.9921744225163637,-0.48070831643090906,0.658354212374909,6.225546845163636
6.618670958,-1.213712328498182,-0.38465217133999996,0.6487260116658181,6.368990719199999
6.628686958,-1.435324799770909,-0.24030404226727275,0.5775381916658181,6.517198430890909
6.638703958,-1.6025953098963637,-0.09865348892181816,0.5046773264658181,6.617597368309091
6.648719958,-1.688328955896364,-0.029589016194545455,0.4833115154112727,6.643356931636363
6.658736958,-1.7660024211036365,-0.004105755358181818,0.48242684232036365,6.660443983054545
6.668753958,-1.8166442309418183,-0.00036023101272726746,0.48675197457490904,6.676470419999999
6.678769958,-1.8261748761600003,0.0037157673327272794,0.504347947484,6.686658928490909
6.688786958,-1.8329357724145456,0.029100858732727275,0.5533024528839999,6.689269337018182
6.698803958,-1.8568222277690911,0.11316629944181816,0.6359278838439999,6.650492672309092
6.708819958,-1.8556478889327275,0.25043240850545456,0.7313228470621818,6.57674521030909
6.718836958,-1.8300631257327273,0.40325227066181824,0.8058158827694545,6.497583034781819
6.728853958,-1.8040669311872728,0.5340044432618182,0.8778779465512727,6.434084119472728
6.738869958,-1.7495938449145456,0.6146216852072728,0.9295405845512728,6.377877689963636
6.748886958,-1.6660643865800002,0.6469879800018182,0.9165892118421818,6.302521001054545
6.758902958,-1.560942031270909,0.6383008142327273,0.8531369498603637,6.194378637345455
6.768919958,-1.4681221990981819,0.5983191482981819,0.7625339180785454,6.074119501854545
6.778936958,-1.393211236308182,0.5353936779163636,0.7087713216785455,5.987466906
6.788952958,-1.3283433261936366,0.45045527980727273,0.7198611110181818,5.932472215236363
6.798969958,-1.282149093296909,0.35525255177090914,0.73520975776,5.872247853454546
6.808986958,-1.2243689720278184,0.2656573460727273,0.7056954397472728,5.812462828218182
6.819002958,-1.1533987694460002,0.18917311815272725,0.6710704001054545,5.749237961345455
6.829019958,-1.0773496248460002,0.13593174253454546,0.6664233733072726,5.695836923018181
6.839036958,-1.003399550955091,0.09131390435272728,0.6625471291345455,5.650958563890909
6.849052958,-0.9417777704460001,0.03316445035272727,0.6392172011472728,5.595752441872727
6.859069958,-0.8756729084460001,-0.015889574647272725,0.5960523216472726,5.550014864454546
6.869085958,-0.8003482259005457,-0.049032847465454533,0.5323881140418182,5.5230917301090905
6.879102958,-0.7066795680460001,-0.08869496837454546,0.4546313512599999,5.494924766690909
6.889119958,-0.5820532202823638,-0.1511281032109091,0.37744951862363635,5.442987941127273
6.899135958,-0.4405575490460002,-0.22976947530181818,0.3095323107872727,5.367848334
6.909152958,-0.28733186355509105,-0.30767213144727273,0.25168434984363636,5.283751721563636
6.91916975,-0.13784551499145473,-0.37652085255636364,0.2047362048672727,5.204998385509091
6.92918575,-0.015684624446000172,-0.4318598264109091,0.1665429244509091,5.136115646945455
6.93920275,0.07390797393581801,-0.47647281670181824,0.1280027553181818,5.080202393763637
6.94921975,0.1422756180267271,-0.5119197117563636,0.08480897461272727,5.047984929145455
6.95923575,0.1924779245685453,-0.5348038746036363,0.04294136367999998,5.0439437878909095
6.96925275,0.2022844892776362,-0.5317787697418183,0.028879644594545444,5.052827886254546
6.97926875,0.17346826502309076,-0.5000292605236364,0.031271365765454535,5.027941837654546
6.98928575,0.11322620151399983,-0.44807889696000003,0.05165306649636362,4.9654144637454545
6.99930275,0.037978112186727114,-0.37786426626909086,0.10769690360545452,4.867135762345455
7.00931875,-0.04038243275690926,-0.30051130156,0.1673341444236363,4.757922731527273
7.01933575,-0.1110942614823638,-0.23959178761272729,0.21317307789636364,4.669549048927273
7.02935275,-0.18040248602600015,-0.21113620632727273,0.23082016611454548,4.615366430672728
7.03936875,-0.2449739077532729,-0.2171665036,0.2352598612781818,4.5805968967818185
7.04938575,-0.2984133179169093,-0.23750746785454543,0.24511735787818176,4.549404115218182
7.05940275,-0.32290478202600015,-0.24549240429090907,0.2646847408054545,4.52479598450909
7.06941875,-0.29918792251690923,-0.23081289498181815,0.28469339713272723,4.51400739250909
7.07943575,-0.22353408958054563,-0.1966915212,0.30784085478727274,4.504793731018181
7.08945175,-0.11434450808963652,-0.15342322039999998,0.3314990933145454,4.503639244872727
7.09946875,-0.004564894689636519,-0.11298102774545452,0.34835445522363634,4.5172703106545455
7.10948575,0.0675163798376362,-0.05970855558181819,0.34230572326,4.531751676
7.11950175,0.1021665120194544,0.009200785199999985,0.25588338687818174,4.519389850309091
7.12951875,0.1589198529285453,0.06378102436363636,0.07517724962363634,4.4708056890181815
7.13953575,0.2899848728376362,0.07394484596363636,-0.10849870974000005,4.453827452509091
7.14955175,0.4733678654194544,0.036783387816363644,-0.22164918448545456,4.481928621909091
7.15956875,0.6960643573103634,-0.03393408214727273,-0.31222767391818185,4.4691101034
7.16958575,0.9625951711285454,-0.13242589023818183,-0.3956723688818182,4.408609728054546
7.17960175,1.2236585512558178,-0.2505247413290909,-0.41117513426363644,4.299206564945455
7.18961875,1.4298974486921816,-0.34280115055818183,-0.4283549794454546,4.178424068381818
7.19963575,1.558423545092182,-0.3622884532054545,-0.5233281876472728,4.0574050928
7.20965175,1.6731726326558183,-0.33281102314000005,-0.6244367735872727,3.936797767818182
7.21966875,1.7617977866012726,-0.31152479801272726,-0.7017526137872728,3.8601888768909087
7.22968475,1.8119525712158182,-0.32238060039454547,-0.7446860604963635,3.8404930179818186
7.23970175,1.8532618102485452,-0.37284854594,-0.7505338715145454,3.8746059663454546
7.24971875,1.9013060835830908,-0.4895826037581818,-0.7326839380963637,3.9674648800727277
7.25973475,1.9584546989267273,-0.6659628964945454,-0.7079599966781819,4.090769683981819
7.26975175,2.009500979275818,-0.8664888621781818,-0.6823009472600001,4.211941228454546
7.27976875,2.0454746473303635,-1.0461901926327273,-0.6543303552963635,4.311434743490909
7.28978475,2.0614973365121814,-1.1831008653963635,-0.6343719770236365,4.383114372290909
7.29980175,2.0464813518321816,-1.2825089747218184,-0.6179444425872728,4.448183526272728
7.30981775,2.003729736250363,-1.3490000027963636,-0.6150905123145455,4.502074192254546
7.31983475,1.9460147529503635,-1.3946915173345455,-0.6298021467600001,4.5467371385454545
7.32985175,1.888460914924,-1.4149487919709092,-0.6386793231254545,4.590947127727273
7.33986775,1.8245661197003638,-1.4077326368254546,-0.6248584136436364,4.633647734727273
7.34988475,1.7526319012945455,-1.3857165835072727,-0.57991830684,4.690544589872728
7.35990175,1.6689873391890906,-1.3567691344454544,-0.5002776721672727,4.745575456036364
7.36991775,1.5636551286436362,-1.3245790428345452,-0.42444056624,4.81420560069091
7.37993475,1.4457094453527273,-1.3034997028163635,-0.37567810465636364,4.886953335054545
7.38995175,1.3325206527345455,-1.2889588788163637,-0.34082833789636363,4.944703718090909
7.39996775,1.2163419687890906,-1.2591307115072727,-0.3194484802545455,5.006285499909091
7.40998475,1.0974133977890907,-1.2321926421618181,-0.2872712472090909,5.053704868563637
7.42000075,0.9774959988436364,-1.2058976495799998,-0.24347224780363638,5.084782093163636
7.43001775,0.8558615012254546,-1.1699077289254547,-0.18212301400363642,5.1172191312181825
7.44003475,0.7457787469163635,-1.1030138595799999,-0.09624107729454548,5.169164064618182
7.45005075,0.647425331770909,-1.0150846638345454,-0.004742978985454565,5.242299651527273
7.46006775,0.5373494505890908,-0.9275728635981818,0.061540813139999984,5.314073753545454
7.47008475,0.4083853512072726,-0.84261805078,0.11240796935272725,5.394007934181818
7.48010075,0.26873523133454535,-0.7575314523436363,0.17657561293272728,5.503333092436364
7.49011775,0.13355930253454532,-0.6622486599799999,0.2597852086290909,5.639138137163636
7.50013475,-0.012784683247272855,-0.5583729164345453,0.34385659753454545,5.780623829454546
7.51015075,-0.16011356872000013,-0.45870593493272727,0.41345092899454544,5.8986474687272725
7.52016775,-0.2823354165018183,-0.37815479842363636,0.46714956749636366,5.989651237454546
7.53018475,-0.37034505133818196,-0.31648036640545457,0.5164115274690909,6.0537128678545455
7.54020075,-0.43051060935636376,-0.28556667946,0.5595986556290908,6.081591733036364
7.55021775,-0.455092484693091,-0.28858789326545453,0.5726496329854545,6.061292134090909
7.56023375,-0.4321491679494546,-0.32258628415636353,0.5545249548399999,6.091188191381819
7.57025075,-0.3671918339876365,-0.3830258373763636,0.5100972628036363,6.175121761145455
7.58026775,-0.2945780721167274,-0.45966595208,0.45100179307636357,6.281108655545455
7.59028375,-0.23906390238945469,-0.5301541367709091,0.39948425105818175,6.375161336127273
7.60030075,-0.19503048809854562,-0.5692654074436363,0.3598489263490909,6.443173841745454
7.61031775,-0.15989729882581832,-0.5722200692981818,0.3485548379490909,6.473137833636364
7.62033375,-0.1350870844076365,-0.5512204215345454,0.34580195820363635,6.485025963236365
7.63035075,-0.11473687624400011,-0.5424290796436363,0.3345555830763637,6.5036008242
7.64036675,-0.08489141178945468,-0.5673895462436362,0.31165686598545456,6.546673148218182
7.65038375,-0.053955037625818277,-0.6098192712799999,0.2939630027127273,6.595481578309091
7.66040075,-0.05107237093490921,-0.6386621614981818,0.3128467557672727,6.603370059909091
7.67041675,-0.09116916322581833,-0.6237194211709091,0.34388185218909095,6.552925003509091
7.68043375,-0.16965140600763648,-0.561320221461818,0.3767540640254545,6.467045409345454
7.69045075,-0.265110619493091,-0.4872167139527272,0.42133928537636356,6.364877827145454
7.70046675,-0.34631806343672744,-0.4389470663418181,0.4938459554872727,6.249837232470909
7.71048375,-0.4038367676549093,-0.4429539505963636,0.5939803474672728,6.171203570452727
7.72050075,-0.4572755240003638,-0.5044832121963636,0.7294568071945455,6.145436411252728
7.73051675,-0.5308153811767274,-0.5890823335781817,0.9196840720309091,6.205605676470909
7.74053375,-0.6159292329585456,-0.6973942958399999,1.07218879054,6.314767560743637
7.75055075,-0.6421834132912729,-0.8472928146472727,1.0406673566145455,6.431414788107273
7.76056675,-0.7088824693640001,-0.9384298354218182,0.9597378627181817,6.527207737634545
7.77058375,-0.899357699982182,-0.8733247463018181,0.9354961783927273,6.627199228616362
7.78059975,-1.136652252033091,-0.6647991516472728,0.7988545094472727,6.782123862998182
7.79061675,-1.3628816290112729,-0.37386596141090905,0.6605967126290909,6.904048572325453
7.80063375,-1.5502603443276366,-0.09115262746545451,0.6090462561018183,6.930763347779999
7.81064975,-1.6859687258894547,0.13874458295272732,0.6340307281745454,6.900444043416364
7.82066675,-1.7743585254203638,0.29800842751636364,0.6940693856654545,6.871448272052728
7.83068375,-1.8387619034930909,0.37420469600727274,0.7632187705927272,6.881162731161818
7.84069975,-1.8952541502749092,0.3708525935709091,0.8505429389927274,6.952626853016364
7.85071675,-1.9436867863658183,0.34981200466181817,0.9414302889927273,7.040255221543637
7.86073375,-1.9725530069658184,0.3554241941345455,1.033167744410909,7.109342583470909
7.87074975,-1.9604595563476364,0.3889124526618182,1.0971658360018182,7.1228831724527275
7.88076675,-1.8970408892603638,0.4439707708,1.0157088674399999,7.12410449458
7.89078275,-1.8173154433767276,0.48751098840000007,0.9185264582399999,7.124277682343636
7.90079975,-1.7484659089694548,0.5031580736981819,0.8989544028581818,7.066672621870909
7.91081675,-1.6726741986803637,0.49901943572727275,0.8740575273854546,7.005735212016363
7.920833208,-1.589092949964,0.45910642673272734,0.8219478285432728,6.906266196236363
7.930850208,-1.4961603289876364,0.39816630931090913,0.7495194938341817,6.812623778036364
7.940867208,-1.404578547713091,0.3285649983963637,0.7097075459832727,6.719165546341818
7.950883208,-1.3207928763585637,0.26072142430200007,0.7134141677469091,6.645986491723636
7.960900208,-1.2582435653276547,0.20658268182927275,0.7091935890196363,6.576122684032727
7.970917208,-1.1952936735203818,0.15067210542927276,0.6990906475650909,6.501302478887274
7.980933208,-1.1232351871712911,0.09778880266563639,0.6836467981959999,6.425777342378182
7.990950208,-1.0579779853985638,0.037731349029272755,0.6412431836414545,6.344272928050909
8.000967208,-0.9957884761440182,-0.017225897334363617,0.585270759656,6.269257776069091
8.010983208,-0.9206946310349274,-0.059484756079818166,0.5499408514396363,6.210099709214545
8.021000208,-0.821832367271291,-0.12855107864345452,0.5109370253487272,6.1195173276145445
8.031016208,-0.7044834335440183,-0.21365128515254544,0.44123492903054545,5.996666685832728
8.041033208,-0.5895347220440182,-0.3158019299889091,0.34655677465418183,5.848421766996363
8.051050208,-0.466475166271291,-0.4336411115507273,0.2430698762723636,5.695530127069091
8.061066208,-0.34155724443492735,-0.5416838573798182,0.14235750298145453,5.573972203378182
8.071083208,-0.23701136745310916,-0.6334176662507273,0.05244353898145453,5.484244304287272
8.081100208,-0.17009346339492737,-0.7016470290034547,-0.022010309764000018,5.416052571814545
8.091116208,-0.13483747463129103,-0.7300527175852728,-0.06794558409672728,5.378569617632727
8.101133208,-0.14097459988729102,-0.7156311980525455,-0.06458944178036365,5.391413212341818
8.111150208,-0.189452716687291,-0.6660001697979999,-0.017657583954909118,5.347916164650909
8.121166208,-0.2714461227563819,-0.5849106748343637,0.061215327245090885,5.235143179850909
8.131183208,-0.35100204855456374,-0.49029010621800007,0.14928954459054544,5.0986019369963635
8.141200208,-0.40164454410001826,-0.39496005773072723,0.214236567536,4.9885743862327265
8.151216208,-0.43735139040910914,-0.3128952897070909,0.2584192878087273,4.910758516523636
8.161233208,-0.4689257489363819,-0.2616759663289091,0.27484149066327274,4.86773063816
8.171249208,-0.49513594624547286,-0.2447667329507273,0.2851781001541818,4.838120888905453
8.181266208,-0.5278502566818365,-0.2362354539507273,0.29755815469963637,4.802892539850909
8.191283208,-0.5844370210454728,-0.2174728339325455,0.31786112000872724,4.741155481487272
8.201299208,-0.6462077035545638,-0.20317336173254547,0.3412792931178182,4.678076483105454
8.211316208,-0.6771600353000182,-0.21484032175072726,0.34033121759054547,4.661762963014546
8.221333208,-0.6669119446818365,-0.26416387151436366,0.3234850809869091,4.699498260378182
8.231349208,-0.6252454407727456,-0.35230269525981817,0.2896373250050909,4.768657649178182
8.241366208,-0.5708804748327456,-0.4463265820961818,0.23913589087236367,4.853149319214545
8.251383208,-0.5150968999618365,-0.5133504190889091,0.17151990634327274,4.95861854178
8.261399208,-0.46639359096183647,-0.5429996828707273,0.09752961689054547,5.0316642128709095
8.271416208,-0.41834655218001826,-0.5230517153070909,-0.0072344064185454636,5.052530536034546
8.281433208,-0.32709792400365467,-0.48626884843436363,-0.18161455801854545,5.017037029361817
8.291449208,-0.18794358422183646,-0.4371283590525455,-0.3522839070912728,4.979958419579999
8.301466208,-0.07633437705274558,-0.3451393245252727,-0.376101064964,4.967614161398181
8.311482208,0.06517114940179987,-0.26756512245254543,-0.39042393665490915,4.970126451343636
8.321499208,0.3178776091654363,-0.291494108318,-0.48644663569309093,4.932555816689091
8.331516208,0.6175158309836181,-0.42428324886345453,-0.48038389167490914,4.783175513616364
8.341532208,0.9023740459472543,-0.6089416042452727,-0.46897572942036364,4.600194178689091
8.351549208,1.1409944356381634,-0.7499180480452727,-0.5297442775658182,4.449803236907273
8.361566208,1.3120752958017998,-0.8197317829907272,-0.6493742911803637,4.315076246034545
8.371582208,1.419341013112709,-0.8310383844270909,-0.7718445844894545,4.184356320016364
8.381599208,1.4773577034399816,-0.8090601253725456,-0.865270566944,4.081250737034545
8.391616208,1.4971272990217999,-0.772653362027091,-0.9240096541803635,4.011420187034545
8.401632208,1.517462703094527,-0.7656608469179998,-0.9574631908894545,3.976044898161818
8.411649208,1.5380500370945271,-0.8152684862998182,-0.987679985434909,3.9750259635618184
8.421666208,1.547747067512709,-0.8969873436816364,-1.0051688160894547,4.007659807634545
8.431682208,1.5270604251836182,-1.0049932414198184,-0.9133099312894546,4.031107862180001
8.441699208,1.4883558815181634,-1.117908163747091,-0.851464058913091,4.0516845413254545
8.451716208,1.4448639353472545,-1.2135204839270908,-0.8966327818767272,4.12489573727091
8.461732208,1.3778482312945273,-1.2990165363016364,-0.9377143183858182,4.191723341634545
8.471749208,1.3013779197417998,-1.3540046878525454,-0.9391771894158183,4.274852320396364
8.481766208,1.2208821138381638,-1.3689905381034546,-0.8899779926521819,4.338507470869091
8.491782208,1.1403382172363454,-1.356772462059091,-0.8445895658740001,4.410441451672727
8.501799208,1.0681583174454543,-1.3400952036756362,-0.8284360266376364,4.46314719
8.511815208,0.9990984719963636,-1.3248382871301818,-0.819770708183091,4.519673906836363
8.521832208,0.9104621923890909,-1.3078082077483637,-0.8006449335649091,4.593232973527273
8.531849208,0.8227858940218181,-1.2877823871665457,-0.7649096644685455,4.666844254418182
8.541865208,0.7733774347218181,-1.272944184421091,-0.729958889714,4.703591097218181
8.551882208,0.7459586538127273,-1.2784611386938183,-0.7127884266558182,4.701137436527272
8.561899208,0.708423962570909,-1.299016919021091,-0.7280458641340001,4.677582863490909
8.571915208,0.6600098701345454,-1.2867472811665455,-0.7156139255121817,4.689837959527273
8.581932208,0.6133159102618181,-1.2469711820574547,-0.6624834762303636,4.7373907263272725
8.591949208,0.5586829451618182,-1.1879644411847272,-0.5918973971812728,4.8126260463272725
8.601965208,0.48672916517090903,-1.1054457697501818,-0.5111606168903637,4.9021731915454545
8.611982208,0.39354690529818176,-1.013784966012,-0.42205766169036363,4.989128684781818
8.621999208,0.2927910712436363,-0.9211975380683636,-0.3295703805994546,5.0782715839636365
8.632015208,0.1883622475490908,-0.8371120998974546,-0.25286395049036364,5.18045695469091
8.642032208,0.081395009330909,-0.7600172100247272,-0.19558349372127276,5.300219907963636
8.652049208,-0.016216952949091007,-0.6874248994610909,-0.14800410461218183,5.41985466449091
8.662065208,-0.10554750569454555,-0.6149445258792727,-0.09846582914672729,5.535832499254545
8.672082208,-0.19240887693454553,-0.5475811570247273,-0.041502456255818186,5.636074264945454
8.682099208,-0.27648799346363645,-0.4798643186592727,0.024683480035090903,5.700299142054545
8.692115208,-0.3570345479000001,-0.4267787235101818,0.09783327476236363,5.708578630509091
8.702132208,-0.4209447239545456,-0.3944392833883637,0.16623332838236363,5.676555116327273
8.712148208,-0.4506503814818183,-0.38420671978472726,0.20714603051145455,5.632305024181819
8.722165208,-0.4566638228454546,-0.3948121656465455,0.205036432166,5.6309282430181815
8.732182208,-0.4374714643909092,-0.428715406392,0.15810364942054542,5.686435687490909
8.742198208,-0.38081359788181823,-0.4782565044647273,0.0792788581478182,5.792692120636364
8.752215208,-0.30493175542727285,-0.5103443229556364,0.003359322420545461,5.898627731854546
8.762232208,-0.22743085615454553,-0.5140770472283637,-0.05300096597945454,5.980190714509091
8.772248208,-0.15213104555454554,-0.5139459845374545,-0.0891227998158182,6.052029418709091
8.782265208,-0.10112416744545465,-0.5241278368283636,-0.10835710407036366,6.102903230509091
8.792282208,-0.07378602628181827,-0.5374775936283637,-0.10526900876127272,6.127651752454546
8.802298208,-0.07804217733636375,-0.5256680678647272,-0.07840060099763636,6.1047871936
8.812315208,-0.11826764026363647,-0.4559181526247273,-0.03910931050672727,6.0216779651818175
8.822332208,-0.19122867623636375,-0.3364793748610909,0.00974311845690909,5.939235097690909
8.832348208,-0.29586092190000013,-0.18401178086109093,0.05516743119327273,5.891342877927273
8.842365208,-0.42339435644545464,-0.023421947188363663,0.10318581331127273,5.860430716363637
8.852382208,-0.5562758298454547,0.09309158553890907,0.19155167912945453,5.814352753072727
8.862398208,-0.7080774206636364,0.1248699268552727,0.3347811986567273,5.766479428018182
8.872415208,-0.8626717320454547,0.08348671521890907,0.5173116459476363,5.761180249272727
8.882431208,-1.0005781324818184,-0.013763558908363649,0.7121659719839999,5.820032349963637
8.892448208,-1.0928270119545456,-0.2124315028356364,0.7840890713658182,5.957361119799999
8.902465208,-1.0358657387545456,-0.5046772547083637,0.6336958236385455,6.270017574309091
8.912481208,-1.0434328969545454,-0.6909762430901819,0.6276450026221818,6.4410217788181825
8.922498208,-1.2025708909018182,-0.6667351860029092,0.6098741448094546,6.543690511509091
8.932515208,-1.4118877627381818,-0.46540553640290916,0.38632307704581825,6.787834454672727
8.942531208,-1.5770972582109093,-0.2032869677483636,0.1898850379549091,6.970277897581818
8.952548208,-1.6672511706836366,0.02661186921527274,0.14663894593672727,7.027607845727272
8.962565208,-1.718226553538182,0.20351718874254549,0.2080506147185455,7.071836888254545
8.972581208,-1.7739770571018183,0.3146644871516364,0.28803225370036367,7.1146970124
8.982598208,-1.8227247610963637,0.3536483310607273,0.3946546590276364,7.171071750490909
8.992615208,-1.84082470286,0.35108577286072734,0.544270215124,7.250176304181818
9.002631208,-1.821355074750909,0.34251919795163643,0.7063738716694545,7.320225046381818
9.012648208,-1.765481846109091,0.3443142187334546,0.842187360924,7.360154782309091
9.022665208,-1.6948579581763636,0.3579383268789091,0.9327248852870909,7.368774478181818
9.032681208,-1.6266874609363637,0.374246551528,0.9755276095052726,7.357407187109091
9.042698208,-1.5702587813618183,0.3877126785436364,0.9775188947416363,7.327145812618181
9.052714208,-1.515253112089091,0.3909268504545455,0.9575757644143637,7.278803819036364
9.062731208,-1.446797977709091,0.37604564409090907,0.9232274555343636,7.2055237240545456
9.072748208,-1.3615549529618185,0.3553598110727273,0.7689349136434547,7.2103850436181816
9.082764208,-1.2878266001545455,0.31988278692,0.6108767861343637,7.207483804690909
9.092781208,-1.2582981239036364,0.26334362420535457,0.570839964998,7.135238594478181
9.102798208,-1.255197316207273,0.20787702157362728,0.5599713545616364,7.091739950914545
9.112814208,-1.2527957491218182,0.15815407509908183,0.5644824282798182,7.0526609817127275
9.122831208,-1.2440223475581818,0.09624439364635455,0.5395101582761819,7.004636572861817
9.132848208,-1.2306713482254548,0.03455770373362727,0.4827618353398182,6.938377956716364
9.142864208,-1.1937044216218184,-0.01480681904819091,0.4269607081798182,6.865461736643637
9.152881208,-1.1354453575694547,-0.052809138702736354,0.3896341246725455,6.799289969952727
9.162897208,-1.0556839167676364,-0.10981187930273635,0.3669625771998182,6.7190705892436355
9.172914208,-0.9607810379312728,-0.18063056988455456,0.34307940159981826,6.627476397607273
9.182931208,-0.8563415948967275,-0.25612725624819094,0.31808776401800004,6.5209565127527265
9.192947208,-0.7495450575021819,-0.32886915984819093,0.2846299907343637,6.400700796461819
9.202964208,-0.6442926136130911,-0.39710171201182737,0.2281690425125455,6.28758125008
9.212981208,-0.5265602646676365,-0.4623570107936455,0.13881932951254547,6.20491288168
9.222997208,-0.39351785197672745,-0.5165099885754637,0.053385704148909106,6.148860808298182
9.233014208,-0.2666479541585456,-0.5577275751754636,0.0071995178216363856,6.103174200498182
9.243031208,-0.17374803506763647,-0.5785908233391001,-0.015494358023818159,6.07551922338909
9.253047208,-0.12275701621309103,-0.5921030689391,-0.03448036558745453,6.068846525352727
9.263064208,-0.11913964288581831,-0.582728483230009,-0.041985840971090885,6.080812994843636
9.273080208,-0.1417930081585456,-0.5390771791645546,-0.02452022109836362,6.060719270898182
9.283097208,-0.19553561241309103,-0.46003716518273635,0.02666465688345456,5.9814621792072735
9.293114208,-0.28785818143127284,-0.3598608167863727,0.10471417381072728,5.843728034534545
9.303130208,-0.3975886516312729,-0.2716957337336455,0.17453587159254547,5.694728218407273
9.313147208,-0.5080651521403637,-0.21218960875182727,0.219617420538,5.565421768407273
9.323164208,-0.617584288013091,-0.16527313442455455,0.24363490135618185,5.45109954778909
9.333180208,-0.7008018771403638,-0.10217911539728183,0.2585975541016364,5.357084381116364
9.343197208,-0.7495573539585455,-0.027007598013645467,0.261954041938,5.288470198698181
9.353213208,-0.7533958862494547,0.014989603168172713,0.25884791061072726,5.267425112552727
9.363230208,-0.708918912813091,-0.00810650530819092,0.25853389386527276,5.31022816008
9.373247208,-0.6329178881494546,-0.09045420414455456,0.24636863944709095,5.35921069868
9.383263208,-0.5399199325040002,-0.20972123325364544,0.2138044057652727,5.3768069246436365
9.393280208,-0.4326902951767274,-0.34017833409000914,0.17221515419272726,5.3761777850436365
9.403297208,-0.31762196557672734,-0.4438157344900091,0.09774229933818182,5.396981748170909
9.413313208,-0.17133629779490922,-0.4828174496063728,-0.0138625383709091,5.42537713568
9.423330208,-0.0006365804130910359,-0.45626856029728186,-0.14824384384363637,5.417095617934546
9.433347208,0.1724094864232726,-0.37709663311546365,-0.30727304504363634,5.368983360170908
9.443363208,0.30628634729599985,-0.21197404844273637,-0.3755933878254546,5.27571475717091
9.453380208,0.30063926589599993,0.038223535811809047,-0.2618903033527273,5.03732889118909
9.463396208,0.3660712303323635,0.19761720986635448,-0.3317493435945455,4.952145095207272
9.473413208,0.6024934815505453,0.16940217239726357,-0.42135336263636364,4.928123321007272
9.483430208,0.9179774346959998,-0.009253739693645511,-0.31583432823636365,4.7131044910254545
9.493446208,1.2056535982050907,-0.21795268834819098,-0.24908886123636365,4.485514554516364
9.503463208,1.3890169255505451,-0.3733719142754637,-0.3308627249636363,4.327632679007273
9.513480208,1.4852791531098182,-0.46774084000273647,-0.48359217854000003,4.162175923534545
9.523496208,1.5576178539861818,-0.5194197226481909,-0.6011260610309092,4.047187052716363
9.533513208,1.6055868856007272,-0.5323290140118274,-0.68491177094,3.975870644061818
9.543530208,1.6324046591152725,-0.5265508911936455,-0.7466256025763637,3.920824566461818
9.553546208,1.6499218394625452,-0.5383856237936455,-0.79140272954,3.892586634952727
9.563563208,1.6525449801389092,-0.5968273003754637,-0.8384518293581817,3.9009005182254546
9.573579208,1.6385172785570907,-0.6909300076663729,-0.8815667949036363,3.944135402007273
9.583596208,1.6112098698261816,-0.8014301043518273,-0.9208136678127273,3.998556332625454
9.593613208,1.5745186367970907,-0.9152630076427364,-0.95306867414,4.055060537661817
9.603629208,1.5281156994879999,-1.0205659608427364,-0.9733747344872727,4.118769440243637
9.613646208,1.4846446012898178,-1.1179969245518273,-0.9781273307709091,4.1894904171890905
9.623663208,1.4438082823970908,-1.2040060966791,-0.8634203936636364,4.152721266425455
9.633679208,1.4031828247352727,-1.2613555984354639,-0.7371350366636364,4.112973800298182
9.643696208,1.363641541848,-1.2814033939208183,-0.6934250584545455,4.174714586256364
9.653712208,1.3074966223334545,-1.2857411986927272,-0.6582149331272727,4.23535460792909
9.663729208,1.2488483808898179,-1.281483426356364,-0.6182599517509091,4.306317508676363
9.673746208,1.197271441798909,-1.2557303430854545,-0.5656338228236364,4.3714430148181815
9.683762208,1.1474748748843635,-1.233255442809091,-0.5194179060509091,4.4265087256545455
9.693779208,1.102199511989818,-1.2250535640454545,-0.49586733869090915,4.461596156309091
9.703796208,1.0683353984101815,-1.2303144315545456,-0.4952450461072727,4.468135677036363
9.713812208,1.0215455402265454,-1.215128904209091,-0.5069737819545455,4.486848192909091
9.723829208,0.9698064937174543,-1.1698454083727274,-0.5113019521000001,4.527205237563637
9.733846208,0.9208798197374545,-1.1038866789181818,-0.5093135585727273,4.5907390338
9.743862208,0.8712574845610909,-1.0367395507363637,-0.49374439274363635,4.6693697728181816
9.753879208,0.8054186921265454,-0.9794642023,-0.4486721833763636,4.746980844927273
9.763895208,0.7015201377992726,-0.9192754733545455,-0.3557456063036364,4.818249520509091
9.773912208,0.5518961696901817,-0.8543834355181819,-0.25179763370363634,4.898516179945455
9.783929208,0.37581496738109077,-0.7896994947545455,-0.1730556762127273,5.003898806327273
9.793945208,0.20545953405381806,-0.7214480933181819,-0.10731567249454547,5.129233407581818
9.803962208,0.05559923478109078,-0.6372565653909092,-0.03448235298727274,5.265026151054546
9.813979208,-0.07497209276436374,-0.5532031912272727,0.04564071419454545,5.39535653529091
9.823995208,-0.19511705738254556,-0.47495285966363643,0.12611624355818182,5.5057889475272725
9.834012208,-0.29617263034618196,-0.4044659188272728,0.19898512741272728,5.588348099163636
9.844028208,-0.37973045961890917,-0.3484551743145455,0.2485959083418182,5.6399215214545455
9.854045208,-0.4400674633280002,-0.31145846944000005,0.2793406851854546,5.647654171381817
9.864062208,-0.4738887526896364,-0.2963378461761819,0.2932889895490909,5.619503444363636
9.874078208,-0.4716983511623637,-0.31474070293981826,0.2646907999854546,5.6495267043818185
9.884095208,-0.4176140356169092,-0.3967877485852727,0.17414078649454548,5.778216094854545
9.894112208,-0.32531061225327285,-0.5279848624052728,0.06457227353090907,5.962629013781819
9.904128208,-0.242207617944182,-0.6351909354598181,0.00465660956727268,6.103458314836364
9.914145,-0.20567571887145472,-0.6832506042416363,-0.0024643901054545838,6.1589167622181815
9.924162,-0.22438768072600013,-0.6829221076598183,0.011629071383636325,6.1391631066
9.934178,-0.2583724848169092,-0.6598208642634547,0.013662682492727236,6.102857953836363
9.944195,-0.265988493835091,-0.6405238938034545,0.008415619747272694,6.094348629436363
9.954211,-0.2505128861078183,-0.6210457765961819,0.02503927511090906,6.098348404581818
9.964228,-0.2624972967805456,-0.6036034047307272,0.07439355995472725,6.0716351848545465
9.974245,-0.315080020744182,-0.5772316541543636,0.14309334715472727,6.005979466127272
9.984261,-0.39472274447145467,-0.5233557812234545,0.21173484560018177,5.911182914581818
9.994278,-0.47676619674418197,-0.45985303118036364,0.26517723785781816,5.8024041699090905
10.004295,-0.5372192836169093,-0.42587374474399997,0.3243652211532727,5.720527554254546
10.014311,-0.5611937555078184,-0.4294014868894546,0.43391411406236363,5.686248868163636
10.024328,-0.5868555531078183,-0.4548375660167273,0.6005076561532727,5.683880651000001
10.034344,-0.6387197180714548,-0.5026070640712728,0.7637410054078182,5.702498964163636
10.044361,-0.6947202459096365,-0.5815502694349091,0.8187101986969091,5.725347690218182
10.054378,-0.7532569211460002,-0.6787858404712727,0.7276600781696363,5.847407451963636
10.064394,-0.8803211113234547,-0.7287527646712728,0.6304414109096362,6.000306627872727
10.074411,-1.1041813159816365,-0.6680655659076363,0.42382045645509087,6.254500873872726
10.084428,-1.3193438883780002,-0.5083845915258183,0.30677278590963636,6.433604486872727
10.094444,-1.4584782678925454,-0.3170387224530909,0.35383547252781816,6.539041505436363
10.104461,-1.553521708476182,-0.14869751138036366,0.4169001810732727,6.598089669636364
10.114478,-1.640343096067091,-0.015588060354909106,0.46592068560054545,6.605639229890908
10.124494,-1.714350589618,0.08068563306327271,0.5150923246914545,6.6011405334363635
10.134511,-1.7487784292543638,0.14272721708145455,0.5792438924005454,6.605602465109091
10.144527,-1.7490764033634547,0.17993984368145455,0.6629158048550908,6.625113223545455
10.154544,-1.7347909432180002,0.1951386070087273,0.7462243806387273,6.648512811763636
10.164561,-1.7156960418907274,0.22801182349963636,0.826589426856909,6.655770617945454
10.174577,-1.6971162669816364,0.2742873366796364,0.8991224120950908,6.6600164826181825
10.184594,-1.6692203120907276,0.3139638311196364,0.944153542095091,6.662013903636364
10.194611,-1.6349721706743638,0.3428366803505455,0.9515321328950909,6.6500002730545456
10.204627,-1.587792591568909,0.35663334515054546,0.9395210376587272,6.614879452927273
10.214644,-1.5328782557943637,0.35592296160690906,0.8840215630405455,6.5490771572
10.22466,-1.4905536876307273,0.3438888814832728,0.734407391676909,6.575715762836364
10.234677,-1.4407154619634546,0.30517801750509094,0.6711449808041817,6.5314390243090905
10.244694,-1.382353889574364,0.2534153176796364,0.6850640730041817,6.497976782290909
10.25471,-1.3296390769889093,0.2098581856923636,0.6941080784005454,6.468925880509091
10.264727,-1.2692189524798183,0.16865359055236362,0.6872402977005454,6.428378840618181
10.274744,-1.2119537356798185,0.11596763664327274,0.6599402830332728,6.375741210527273
10.28476,-1.1532119906252727,0.04746529397054547,0.6335478226823635,6.310749222490909
10.294777,-1.0858016965343638,-0.029382939074909083,0.6066484220332726,6.232281262036364
10.304794,-0.9990173723161819,-0.10086452318400001,0.5713759753350909,6.1482619988363645
10.31481,-0.8902470202252728,-0.1713016670021818,0.5265340180345872,6.049286903672728
10.324827,-0.7592102689525456,-0.24971109598400001,0.4792033595054963,5.9263232035090905
10.334843,-0.6065852280434547,-0.3291874292167273,0.42734484110004173,5.788699408945454
10.34486,-0.4486699187707274,-0.39451797634400004,0.36595881502186,5.6559721271090915
10.354877,-0.3072727305998183,-0.44391180961672727,0.28838778105822355,5.545889508036363
10.364893,-0.18563971538345467,-0.47863102398036367,0.20388309751276903,5.457474975909091
10.37491,-0.07854195867436375,-0.5156068489621818,0.128586270312769,5.375853757781819
10.384927,0.017826189880181694,-0.5627615494894547,0.06913509054913268,5.3005199397090905
10.394943,0.09450928027654534,-0.5981643246349091,0.025198787874587226,5.253551755872727
10.40496,0.13613343773654532,-0.6037926736894547,-0.012183843859958233,5.2552484029818185
10.414976,0.14637770241636353,-0.581656199626,-0.03347908431450368,5.283203491600001
10.424993,0.12205187001090895,-0.5360136634896364,0.006420646194587229,5.228205797527273
10.43501,0.04836946037454534,-0.4525230572441818,0.13116122995640542,5.062913538945454
10.445026,-0.056405895898181915,-0.3333667850441819,0.28905214569949633,4.849528950527272
10.455043,-0.15420374580727284,-0.22301308138600007,0.3895823463316782,4.681319551545454
10.46506,-0.219884211589091,-0.14629616616054547,0.408445915840769,4.588100565490909
10.475076,-0.23988699415272738,-0.10071353740781823,0.3801062237153145,4.574597505127272
10.485093,-0.2420159334800001,-0.09066067468781823,0.3541736495334963,4.589871764581818
10.49511,-0.2668685508436365,-0.09692066123872731,0.33354206273349635,4.586914115963636
10.505126,-0.3121170909709092,-0.11680641442781824,0.29626832211531456,4.5730122720363635
10.515143,-0.33417696651636375,-0.14465500156600003,0.23645895521695093,4.5830051464363635
10.525159,-0.3076309317163637,-0.1812950475423637,0.17325000119876907,4.628950981654546
10.535176,-0.249133706589091,-0.2287046016187273,0.12547674498967815,4.695686924836363
10.545193,-0.18442729126181828,-0.2641979129345455,0.10050737733204179,4.769295787109091
10.555209,-0.13819004013454556,-0.2625992948072728,0.07806177692749633,4.812487568163636
10.565226,-0.11174204718909102,-0.2326107224072728,0.01992227381840543,4.817577878454546
10.575243,-0.07020657406181828,-0.19712284368000002,-0.0895260895088673,4.803092479945454
10.585259,0.006337757938181712,-0.1539615150254546,-0.21100233489068546,4.788287107545455
10.595276,0.11080717459454535,-0.09470676715272733,-0.24838875136159458,4.805936922854545
10.605293,0.2522453836490908,-0.01692314969818186,-0.17137341552523092,4.765188447345454
10.615309,0.4857254913763635,0.029439370047272678,-0.14867639547068548,4.721241613272727
10.625326,0.814002168812727,-0.004399678905454593,-0.07054102021614,4.563968681054545
10.635342,1.1304276192309088,-0.10921393245818185,-0.08548903368886729,4.4263438993090904
10.645359,1.3540677666672727,-0.22613439949272732,-0.26066930763432183,4.286057347854546
10.655376,1.502514031121818,-0.30040583902909096,-0.4348780614015945,4.135682201272727
10.665392,1.6182823840490907,-0.30747500580890913,-0.5420647323379582,4.010906214345455
10.675409,1.7359062684672728,-0.28297683070709095,-0.6140526321561399,3.913006090127273
10.685426,1.8417065486127273,-0.27809888141618183,-0.6861581992106854,3.8485736372363637
10.695442,1.9180102676672726,-0.31009168796163644,-0.7453319791015945,3.8229807132363636
10.705459,1.975158642474545,-0.3564403232343637,-0.76199003735614,3.835099512709091
10.715476,2.0136890906194544,-0.446955178998,-0.7485638308834127,3.8993675624181816
10.725492,2.038152562497636,-0.5853620479234546,-0.7387612396288672,3.9938283594727273
10.735509,2.0445842498885454,-0.7392221403816365,-0.73857638255614,4.094517934090909
10.745525,2.0298857690176364,-0.8914660092670911,-0.7491019873379583,4.188552177181818
10.755542,1.9972449248576363,-1.0271567933725456,-0.7588643311561399,4.280992218218182
10.765559,1.9516076007194543,-1.1438819208907274,-0.71961293195614,4.392576315054546
10.775575,1.9122859977194544,-1.2368617926761818,-0.5930219888470492,4.38922412629091
10.785592,1.8726289811612729,-1.2834154951161818,-0.5388236340106854,4.430379101872727
10.795609,1.8041314783903635,-1.2992010849998181,-0.5134628989197764,4.483836145927273
10.805625,1.719860524004909,-1.316201598727091,-0.4448472478288673,4.569124692745454
10.815642,1.634918824895818,-1.3293576425816362,-0.38119182168159454,4.636007666272727
10.825659,1.5572852044776364,-1.3342312011489093,-0.33736376692341274,4.672852451145454
10.835675,1.4727706816776365,-1.3212960438398182,-0.3168726089743218,4.710930509381818
10.845692,1.3866864432776362,-1.295934468867091,-0.29682014635250364,4.760861245090909
10.855708,1.3057988500049091,-1.266179700048909,-0.26746138487250365,4.809171734909091
10.865725,1.2492793445685455,-1.2272613024307273,-0.24483486828109094,4.848053499818182
10.875742,1.1987528684049091,-1.1786883438125455,-0.23697213134654546,4.890630254036363
10.885758,1.1395362736230907,-1.1184246854707272,-0.21698417015927274,4.9468846194000005
10.895775,1.0682106905685453,-1.0667742309252726,-0.16630929962654548,5.010836751636363
10.905792,1.0034170719976363,-1.0358080040889093,-0.09260021340836366,5.060798916763637
10.915808,0.9427839593267272,-1.0202741421616364,-0.008521972626545462,5.101413611145454
10.925825,0.8569978578176363,-0.9898913398707273,0.07240106140981817,5.167949167981818
10.935841,0.7367866136812727,-0.9314564460525454,0.15140518148254545,5.2727880965818175
10.945858,0.5977743838303635,-0.8647931483798182,0.23530284430072726,5.394277763163636
10.955875,0.4510916389521818,-0.7959947027070909,0.3277425822098182,5.520923915018183
10.965891,0.30096122356127264,-0.723263802507091,0.4200883234643637,5.64721967609091
10.975908,0.1508197994576363,-0.6455229760434545,0.49741787271890914,5.775019205581819
10.985925,0.00819258834854537,-0.5625211119798182,0.5473351514116364,5.888646212763636
10.995941,-0.11732877941509097,-0.4800484315616364,0.5636463980158182,5.959428329618182
11.005958,-0.2230226774514546,-0.41667876414709093,0.5569211006727273,5.988056796109091
11.015975,-0.29881056046963644,-0.3882969959907273,0.5469302184545455,5.987611298418182
11.025991,-0.3388521683332728,-0.395972146938,0.5266669849636364,5.991162191145454
11.036008,-0.3510399372060001,-0.438204895218,0.48058335614545444,6.036849237218182
11.046024,-0.31699273269690914,-0.5028200620907273,0.40437301178181817,6.136991388618182
11.056041,-0.2585271888423637,-0.5687184695452727,0.34256946259999993,6.242114439563636
11.066058,-0.20869399576963643,-0.6175909225634545,0.32928277067272727,6.308065820163637
11.076074,-0.18157818700600006,-0.6323073543816363,0.34859370003636364,6.330749284254546
11.086091,-0.16837331358781824,-0.622907615018,0.36698131949636364,6.335595952145455
11.096108,-0.1550130743332728,-0.6078627291270909,0.3774576030218182,6.3425295066
11.106124,-0.12987886038781823,-0.5965262324725454,0.4056368767818182,6.3618964463636365
11.116141,-0.10482970747872737,-0.5854365946361818,0.46227156172727274,6.385088158854545
11.126158,-0.09231635767872735,-0.5516052321245455,0.5285242254,6.395702064763637
11.136174,-0.08770621087872736,-0.47645560459727276,0.5846201957454545,6.397690082563637
11.146191,-0.10874136718781827,-0.3669143875063637,0.6354611803454546,6.384189266545454
11.156207,-0.1583259047514546,-0.25253817156090913,0.6943180624036364,6.352788822163637
11.166224,-0.21841154727872736,-0.1773716827790909,0.83069809504,6.306191881181818
11.176241,-0.3115488154820819,-0.17062572881727275,1.0417266275672727,6.265710811890909
11.186257,-0.4373880565002638,-0.22610863986454546,1.2256490523854544,6.266803558454545
11.196274,-0.5451040280093546,-0.3307747781209091,1.3586327351127274,6.332636620381819
11.206291,-0.5984817792839001,-0.5236064990936363,1.3333870147527271,6.491134627509091
11.216307,-0.5631019039566273,-0.8195856982665455,1.0354456494527273,6.879431036545454
11.226324,-0.6534406389384456,-1.0193251603865454,0.8501885073072727,7.113890622763637
11.236341,-0.9058073595566273,-0.992059498132,0.6774300756527272,7.307831214781818
11.246357,-1.1553463986111727,-0.8061875372047274,0.5829598017618182,7.4448060940181815
11.256374,-1.3416150625639,-0.5607010651683637,0.5419648266345454,7.524643231418182
11.266391,-1.4640408186906275,-0.31403927089563644,0.5418102049981817,7.548727726381818
11.276407,-1.5437576372597184,-0.08723515255018187,0.5971633503799999,7.550910738181818
11.286424,-1.6217248679233547,0.10972153455890905,0.68963151638,7.569072851654545
11.29644,-1.6961350937779,0.24969371374799995,0.7895737209981817,7.594265724254545
11.306457,-1.7378621163779002,0.3197011616207272,0.88070800158,7.6176821907272725
11.316474,-1.747986299196082,0.3417916978389091,0.9564909596527272,7.642821519290909
11.32649,-1.7409856139415363,0.3422493540752727,1.0162314304163635,7.664796889836364
11.336507,-1.7155492291779,0.35160147583890905,1.0566907580527272,7.66865965210909
11.346524,-1.6663586358106275,0.3704422677952727,1.0566802543436362,7.6402596780000005
11.35654,-1.6132265380124455,0.3985452619770909,1.0107162914345453,7.5758889486
11.366557,-1.5735575758488092,0.412530494168,0.9758173442890908,7.527207395672727
11.376574,-1.5431453833215363,0.4052657964970909,0.9714156188163635,7.501945767454545
11.38659,-1.5047783077215364,0.37902104744799997,0.9841602897818182,7.468540488218181
11.396607,-1.4610477752306275,0.3406874989698181,0.9811955600818182,7.4141518726363635
11.406624,-1.415618201326991,0.29511933940799995,0.8833074530818181,7.408768514490909
11.41664,-1.3772523443379001,0.25552956449890907,0.6895674867363636,7.508253178363637
11.426657,-1.3220267798833545,0.21275481122618176,0.6515105567490909,7.4795970254
11.436673,-1.2500093489742639,0.1526463698825454,0.6753045357309091,7.455456283890909
11.44669,-1.1687638555924456,0.08800698490072723,0.6735692867672728,7.40624139769091
11.456707,-1.0914506625924456,0.0222678449734545,0.6461944516763636,7.33758179470909
11.466723,-1.0177411139197183,-0.050188321135636406,0.5914064862036362,7.2477411758727275
11.47674,-0.9298028682779002,-0.12947781986290915,0.52192395218,7.133360813345455
11.486757,-0.8145527739979,-0.20625159128109097,0.446733403430909,7.009846702545455
11.496773,-0.6618267649615365,-0.27137615693563644,0.36712460952181813,6.892764660472728
11.50679,-0.4824787179433547,-0.3337489484992728,0.29162417828545456,6.773855378472726
11.516807,-0.297571148906991,-0.3937840763901819,0.2316361855854545,6.654764185363636
11.526823,-0.11459243810699102,-0.44367181866290917,0.17966603054545452,6.550139606854546
11.53684,0.04331232223846353,-0.4786586654083637,0.13391485313818177,6.459532337563637
11.546856,0.15769296876573627,-0.4969951296992728,0.10250604787818178,6.401122675745455
11.556873,0.24070101758391807,-0.5021018858629092,0.08977992187999996,6.3761367136
11.56689,0.2965546421111908,-0.49552483137200004,0.0998353228072727,6.371257311672727
11.576906,0.31789564235664536,-0.46960968455927277,0.1499541071872727,6.342428349745456
11.586923,0.3071575763384635,-0.39721208628654553,0.24341452176181816,6.255673135654546
11.59694,0.24693853490209988,-0.2910550462501819,0.37545520808363636,6.103041633636363
11.606956,0.1535809303202817,-0.17742432904109098,0.49225615803818185,5.934397618654545
11.616973,0.06408992466573626,-0.07904731773745462,0.5494872589945454,5.800995839654545
11.62699,-0.014743967006991005,-0.024574359052000075,0.5488034909036363,5.715489159545454
11.637006,-0.08658477213426372,-0.01572801081563644,0.5180710410436363,5.666485947654546
11.647023,-0.16188517807971825,-0.028697730488363715,0.4628419682636363,5.639605864
11.65704,-0.24169678533426375,-0.047402845779272805,0.37599994001272724,5.615982136981819
11.667056,-0.308299660006991,-0.07566069548836372,0.2754677938490909,5.5880476727272725
11.677073,-0.35306007987971827,-0.12671361774545464,0.19015070879454543,5.564610846545454
11.687089,-0.384952787406991,-0.208454822109091,0.12619474106727271,5.544544297927272
11.697106,-0.39351690649790005,-0.31089995396363646,0.07256630635818181,5.530401790381817
11.707123,-0.37532378935244554,-0.41690229794545464,0.02116644220909091,5.528882337345454
11.717139,-0.3377512241160819,-0.49717712694545463,-0.07390867035454547,5.538254064
11.727156,-0.25135249985818187,-0.5281571744818183,-0.21727089775454547,5.537943849727273
11.737173,-0.12169185889454552,-0.49922862786363653,-0.35997520440909087,5.521214874745454
11.747189,0.009613843032727215,-0.4245804043909092,-0.4934247082272727,5.483420713472727
11.757206,0.1170237553436363,-0.27623605426363645,-0.4996933433363636,5.398791308527273
11.767223,0.16347199528909084,-0.028647571954545533,-0.2691915520636363,5.111904968600001
11.777239,0.3386174411072727,0.1568011568999999,-0.16715135582727272,4.968989117563637
11.787256,0.6626392592890908,0.17593170498545443,-0.08251084679090907,4.831364411309091
11.797273,0.9920665838709091,0.087959346150909,-0.09095497039090908,4.701527507290909
11.807289,1.2638048216163638,-0.04483228212000009,-0.17201589108181817,4.579501083236363
11.817306,1.4466275659072727,-0.1692785728581819,-0.30054813106363637,4.457671125618182
11.827322,1.553522870070909,-0.23804721900363646,-0.4394801218169091,4.303297112
11.837339,1.6633139107963635,-0.28812211470181825,-0.5707731087260001,4.149161706836364
11.847356,1.775587424130909,-0.34074653463636373,-0.6981064143441819,4.030937093472727
11.857372,1.8673499547927273,-0.3934212512545455,-0.7855837585441817,3.9848268164181815
11.867389,1.9355543393145453,-0.43475989647272734,-0.8121003924896363,3.981473084509091
11.877406,1.9768409031236363,-0.49960447618181825,-0.8012127281078182,4.027164157981818
11.887422,1.9888027156454546,-0.6251012564181819,-0.7971394938896365,4.127150943218182
11.897439,1.982814263150909,-0.7818017773927273,-0.8085794543805453,4.237422918509091
11.907456,1.9754388657345456,-0.9363812155872727,-0.8162732207260001,4.3333389838909095
11.91747237,1.9706710035527273,-1.064215202329091,-0.818293529416909,4.406174485254545
11.92748937,1.9573193969163634,-1.1641260020909094,-0.8223918534896364,4.464234432363637
11.93750638,1.9429420411527272,-1.2434632566418184,-0.8294996251805454,4.512269426581818
11.94752237,1.9329248584072727,-1.303720674418182,-0.8202861568532728,4.554903101654546
11.95753937,1.893057432449091,-1.3515503350018183,-0.7103057500714546,4.556190707636364
11.96755538,1.8013076766236362,-1.4102310989290912,-0.47725786852600005,4.494353236872727
11.97757237,1.679298558532727,-1.4509861813945455,-0.3944850452169091,4.560691493836364
11.98758937,1.560265293150909,-1.4583568944018184,-0.38814066739872727,4.594690328145455
11.99760538,1.457131109441818,-1.4446906969290911,-0.38452646087145453,4.627061103236364
12.00762237,1.364501884532727,-1.4155258058563638,-0.3765291283441819,4.670579737436364
12.01763938,1.276971452950909,-1.3716349466927273,-0.3556906311623637,4.733520834054546
12.02765538,1.1880639728363636,-1.3311525358563636,-0.3280827140841819,4.808820637672727
12.03767237,1.1005596025563635,-1.2879005115836366,-0.2813104812623637,4.88226130569091
12.04768938,1.0197889296836362,-1.2367870759654545,-0.20112355188054545,4.945599607454546
12.05770538,0.9368869839018182,-1.1759737580745457,-0.11528989988054546,5.009391158145454
12.06772237,0.842157869701818,-1.1074127837654546,-0.04181189694418184,5.082882706727273
12.07773938,0.7335923721563636,-1.035069128710909,0.0220512555321818,5.157572134145455
12.08775538,0.6138009222290908,-0.9680231573472728,0.0870841900121818,5.2465240626363645
12.09777237,0.47558653564727266,-0.9191197353654548,0.1573002585794545,5.350780481163636
12.10778837,0.3171946729927272,-0.8655428146200002,0.23399468992490907,5.474109386400001
12.11780538,0.15218338213818172,-0.7955992714927274,0.3134984279976364,5.611898365509091
12.12782237,0.003690246938181765,-0.7192288941654547,0.38693309110854546,5.745346210909091
12.13783837,-0.12333866593454552,-0.6501568625836365,0.4492088640794545,5.856239988345454
12.14785538,-0.22236677268000002,-0.5883786159109092,0.49611856095763635,5.936815933309091
12.15787237,-0.2890440000254546,-0.5344842019927274,0.523849050294,5.991101334036363
12.16788837,-0.3298101151345455,-0.48763795804181825,0.5381790077414909,6.022370640745454
12.17790538,-0.34248127863090916,-0.4475409637454546,0.5449770975960363,6.028342962327272
12.18792237,-0.3344186513218182,-0.4267410462300001,0.5328579351778546,6.038827914727273
12.19793838,-0.3064616780672727,-0.44007817304818186,0.47478037003240003,6.103852944381818
12.20795538,-0.2555732698672728,-0.49353343981181824,0.37152524995967273,6.230765122036364
12.21797237,-0.2033780408672728,-0.5561651567209092,0.2908953461414909,6.3450330021272725
12.22798838,-0.16766979123090917,-0.587325851339091,0.2699932086687636,6.396704867345454
12.23800538,-0.1464775415036364,-0.5834438636118183,0.30144784280330905,6.407066516490909
12.24802137,-0.13471223132181823,-0.56582544803,0.33475585029112725,6.405866031545455
12.25803838,-0.11456695212181825,-0.548861484719091,0.3535211866002182,6.415548686563636
12.26805538,-0.07461570234000005,-0.5394629254281819,0.3913862348929454,6.444359087345455
12.27807137,-0.04817885630363643,-0.5357148495736365,0.4808200654202181,6.46926521750909
12.28808838,-0.0397719794672728,-0.5253815225009092,0.5726682670929454,6.472258128309091
12.29810538,-0.054767865667272805,-0.4897639631754546,0.6264940825329455,6.436177548999999
12.30812137,-0.0858329157763637,-0.45771545923000007,0.6465206154056726,6.390208944745454
12.31813838,-0.12869212943090919,-0.5009155815027274,0.6776461735693091,6.374921923054545
12.32815538,-0.16736880846727278,-0.6420180700118183,0.7548500821074908,6.428017787727273
12.33817137,-0.22012207977636375,-0.8418461545881818,0.9051690529256727,6.533415346527272
12.34818838,-0.3415015643763637,-1.0128338154445455,1.0590715323802182,6.613041159636364
12.35820538,-0.47302787114000006,-1.095272114228182,1.0405477551802182,6.622796542727272
12.36822137,-0.6617284917581819,-1.07726008535,0.9751830284165819,6.711662751109091
12.37823838,-0.955584774249091,-0.9688622009136364,0.8099819416062182,7.022412937018182
12.38825438,-1.2655789931927273,-0.7766125543790909,0.6267136076062182,7.367212003818181
12.39827137,-1.5071307661636364,-0.5613719428699999,0.6148424362389454,7.5875800864909095
12.40828838,-1.6846623397527274,-0.3513043205063637,0.6960659281298546,7.703934844181818
12.41830438,-1.8081547582563637,-0.19454517852454548,0.7919293171116728,7.7692738242909085
12.42832137,-1.8836447003927277,-0.10985942267,0.8411093549298546,7.774013417672727
12.43833838,-1.9565870744418183,-0.08343221923363638,0.9051732569298546,7.805128082890909
12.44835438,-2.033006226841818,-0.07330686167000001,0.9916251908571274,7.858745770672727
12.45837137,-2.084201002569091,-0.03421234592454548,1.0509648402934908,7.87063083990909
12.46838838,-2.107158686169091,0.04070271256636362,1.085067056475309,7.844319500418182
12.47840438,-2.1068570841327277,0.13651310451181817,1.1043789001298545,7.805310379309091
12.48842137,-2.1042136802054547,0.22998851189363637,1.1154722615844002,7.771676629945453
12.49843838,-2.104913706205455,0.31027967056636363,1.112946285693491,7.748825356145454
12.50845438,-2.0796485784054544,0.37681398929363635,1.0843580151389454,7.709132807272727
12.51847137,-2.012181264658182,0.42823977255545453,1.0169322830607637,7.621961425727273
12.52848838,-1.9162449848181817,0.44357496737090907,0.9539725264007637,7.516041886687273
12.53850438,-1.8214924804327273,0.4185155446181818,0.9032648556407636,7.440262069196363
12.54852137,-1.7282225920509091,0.36806818128363633,0.8769448157189454,7.386232202650909
12.55853738,-1.63584533696,0.30150840059090905,0.8636092304462182,7.336273702414545
12.56855438,-1.5466947960690909,0.22462665768545453,0.823848028455309,7.275135268196363
12.57857137,-1.449915873978182,0.16233405803763637,0.7504090198007637,7.233053438341818
12.58858738,-1.35131640536,0.10175764807399998,0.7078563942734909,7.15228407896
12.59860437,-1.26668879476,0.048488057001272705,0.6723832824553092,7.086746300796363
12.60862137,-1.1876911305599998,0.0057148027285454294,0.6427116929280364,7.036487297778182
12.61863738,-1.100936720178182,-0.042808146271454565,0.6225519711098546,6.983348189541818
12.62865437,-1.0108311376145456,-0.10574102667145456,0.5980668406189455,6.9107654609418185
12.63867137,-0.88367796876,-0.1773469969987273,0.5487689229280364,6.82359804026909
12.64868738,-0.7221011091236365,-0.24572883387145456,0.46361330076440005,6.728437514069091
12.65870437,-0.5346921012509092,-0.3185028546350909,0.3650704943098546,6.623791098505454
12.66872137,-0.3362712766509092,-0.3974280080532727,0.28432619236440004,6.507634407214545
12.67873738,-0.16760004874181827,-0.47589758894418177,0.21800052354440005,6.386719885778182
12.68875437,-0.03593197623272736,-0.5468839882896364,0.1642799340553091,6.275322709414545
12.69877137,0.05919947556727263,-0.6081079614350909,0.12285699856440002,6.190715973214545
12.70878738,0.11776555034363627,-0.6556490778714544,0.09381470500258185,6.136053398614546
12.71880437,0.15088804959818172,-0.6920352058478182,0.07355609879872729,6.108437889414545
12.72882037,0.1555601901890908,-0.7130261040605455,0.0667285123987273,6.10044751456
12.73883738,0.13961968364363625,-0.701496553605091,0.09435165218054548,6.07042258656
12.74885437,0.10461005400727263,-0.6440309261469092,0.1908424287987273,5.963551691541818
12.75887037,0.038856697370909,-0.5410522624287273,0.3410289707987273,5.78126436046909
12.76888738,-0.04081968239272737,-0.42081057689418183,0.4433449908169091,5.621065241414547
12.77890437,-0.11463786968363646,-0.3328652109287273,0.44681665285327277,5.541167964123637
12.78892037,-0.17138163710181825,-0.28940719454945457,0.38314808110054543,5.512535799050909
12.79893738,-0.2100661301381819,-0.2815127517567273,0.32696394803090917,5.497085956796362
12.80895437,-0.2527307112472728,-0.29888663677672733,0.3003338834127273,5.472653219032728
12.81897037,-0.3036943943563637,-0.3142592218858182,0.2648309534290909,5.436124366578182
12.82898738,-0.3366320578109092,-0.31552021114036366,0.19141587052000003,5.399290254087273
12.83900437,-0.35319888355636364,-0.3197707967221818,0.1261989294836364,5.377905067941818
12.84902037,-0.35186523997454555,-0.3461787149749091,0.09258169731636368,5.391143547596363
12.85903738,-0.3437110798109092,-0.3639380803567273,0.07718256586181821,5.4107966744872735
12.86905437,-0.32328127510181826,-0.32239156130218183,0.052254487516363676,5.406147949796364
12.87907037,-0.3131290894472728,-0.21465399759309095,-0.011132492967272692,5.335413032996364
12.88908738,-0.2868542538109091,-0.06990235752036368,-0.14450073643999994,5.216443607469091
12.89910437,-0.18512420452000006,0.04483205884327267,-0.2863224138763636,5.128302527978181
12.90912037,-0.06722479132000007,0.08582685587963633,-0.27087391862181814,5.11848946656
12.91913625,0.1286281966254545,0.04434998248509085,-0.22028926263999998,5.049686757378182
12.92915325,0.44227630742545454,-0.09532154349672733,-0.1202812821672727,4.796659560632727
12.93916925,0.7584794946436364,-0.3037757701330909,-0.05588031474909088,4.51598381006909
12.94918625,1.020431957170909,-0.486202190133091,-0.14449047192727268,4.325370056778182
12.95920225,1.2187014372254545,-0.5982009919749092,-0.31626467896363636,4.15453513076
12.96921925,1.35216209462,-0.6335741802167273,-0.5166395207818182,3.9635533244509094
12.97923625,1.4338176412745454,-0.6042732935440001,-0.6507697999709091,3.8198116612327278
12.98925225,1.5135325129854542,-0.5279289416349091,-0.7447940907890909,3.6828141347963634
12.99926925,1.5955922829690907,-0.4378565606167273,-0.8022398377163636,3.5583060034145455
13.00928625,1.6603636170163636,-0.407222774544,-0.8111281158072727,3.5142595794509086
13.01930225,1.707486758521818,-0.46372495094400007,-0.8005309410981817,3.5438446772145458
13.02931925,1.7480938054345454,-0.5889036532712728,-0.7864659847890908,3.6167699669054545
13.03933625,1.783106504852727,-0.7449544954349092,-0.7836628721163637,3.7064773281054544
13.04935225,1.7933686527254544,-0.9015887408894546,-0.79276904936,3.796341392378182
13.05936925,1.7773842761072727,-1.0491224543076363,-0.8031400776890908,3.8905695110872727
13.06938625,1.7337110689054547,-1.1810336832603636,-0.8005194858672727,3.998297944669091
13.07940225,1.6628232562654546,-1.2758166237376363,-0.7890748047581818,4.110706640963636
13.08941925,1.5815521826436365,-1.3253043526885455,-0.7680942481436364,4.185780027345454
13.09943625,1.4986375005527273,-1.3368791286994546,-0.7429366346945453,4.229664406472727
13.10945225,1.41598042288,-1.3199825784667274,-0.71375524384,4.264087500909091
13.11946925,1.329551861861818,-1.2873378711540002,-0.6551662386854545,4.310521488181818
13.12948625,1.2323961983527274,-1.2613761698698183,-0.5624332469581819,4.342263178472727
13.13950225,1.1401785722618183,-1.2377349414334546,-0.5068485624672727,4.4029427305999995
13.14951925,1.0607871857890907,-1.2291057268880001,-0.4897036650490909,4.426095345309091
13.15953525,0.9811531372072725,-1.243076564288,-0.5107527802545454,4.413831557327273
13.16955225,0.9091066961345454,-1.2508976298516363,-0.5586313687454546,4.3960273651272725
13.17956925,0.8621175621818182,-1.238695883488,-0.5819468461418181,4.3928293734181825
13.18958525,0.7998124069636363,-1.200581998978909,-0.56279566536,4.413039710272727
13.19960225,0.7208512665999999,-1.1459662406516364,-0.49581599079636357,4.443648145872728
13.20961925,0.6098958472363636,-1.080869699088,-0.3976966290690909,4.49284203
13.21963525,0.46871656352727264,-1.0036636270698183,-0.3129924810509091,4.570323509054545
13.22965225,0.31320545125454535,-0.9221508787425454,-0.2493517473581818,4.682811098690909
13.23966925,0.15260760954545446,-0.8365422408880001,-0.19417777395999997,4.824730948018182
13.24968525,-0.007608960472727362,-0.7499668456698182,-0.1397366560145454,4.97545127490909
13.25970225,-0.157661863049091,-0.6651178993425454,-0.08215929625272722,5.124446194145455
13.26971925,-0.2961123681581819,-0.5737668066752727,-0.0179779901254545,5.266022125745454
13.27973525,-0.41768634974363644,-0.47796922544436365,0.05297825885636368,5.3926424218545455
13.28975225,-0.5165462241254546,-0.37956994156072726,0.11910974429272733,5.4959790761636365
13.29976925,-0.5886546882163638,-0.29586553985527275,0.1623222599945455,5.564661782436363
13.30978525,-0.6358640043981819,-0.240715962628,0.18857162303090916,5.590070678745454
13.31980225,-0.645168229489091,-0.21719803601709092,0.20913446519454548,5.580339138109091
13.32981925,-0.60607775098,-0.23380925275709094,0.19591336841272727,5.614539372836363
13.33983525,-0.5166673863981819,-0.30591377795454544,0.11149652068545457,5.748712409345455
13.34985225,-0.4088429809072728,-0.4121151186381818,0.015833457321818206,5.921967936527273
13.35986925,-0.3431965671981819,-0.5091723495836363,-0.019754100459999983,6.038467763963637
13.36988525,-0.31715485474363647,-0.5673471167109091,-0.02089587031454544,6.092487233381818
13.37990225,-0.2997595901618182,-0.58459760422,-0.04906683040545454,6.12426085710909
13.38991825,-0.27270117979818187,-0.5804939325836364,-0.09046815245999999,6.162429926127274
13.39993525,-0.23743235905272736,-0.5690036647836364,-0.08010093811454543,6.1892051452
13.40995225,-0.22419631465272735,-0.5565246540745454,-0.01757290829999999,6.187526254090909
13.41996825,-0.2506306517072728,-0.5280662236018182,0.05601567744545456,6.144486050927273
13.42998525,-0.2946587343981819,-0.4804652954745455,0.1266473155909091,6.080873648345454
13.44000225,-0.3289806357800001,-0.43794021830909097,0.18343747003454544,6.021515678381818
13.45001825,-0.3410629607436364,-0.4227125272181818,0.2288589335890909,5.994856663345454
13.46003525,-0.3324447974345455,-0.4506068821090909,0.30268581728,6.012846544890909
13.47005225,-0.3270508791981819,-0.5174664442363637,0.4146178439163637,6.067002365581819
13.48006825,-0.3432770116163637,-0.6146378128363637,0.5378850276799999,6.126137694127273
13.49008525,-0.3749377016454546,-0.7167990676909092,0.6276712911403637,6.15567088770909
13.50010225,-0.46650292199090915,-0.773928065618182,0.6706683050676363,6.173340368836364
13.51011825,-0.6650600212636364,-0.7598023726763636,0.6197385145403635,6.3138480274
13.52013525,-0.927109753549091,-0.666708714070909,0.4168447241221818,6.639533199527273
13.53015225,-1.1469550353854547,-0.5288849932709091,0.40212505506763635,6.856807762818182
13.54016825,-1.32762375986,-0.4001640689618182,0.4951265084130909,7.0218892792545455
13.55018525,-1.4705232984072727,-0.3263645422654546,0.5370627816130908,7.117746059545454
13.56020225,-1.5964363193272726,-0.29550335268363637,0.5436556979767272,7.172005544927273
13.57021825,-1.7082904663600003,-0.2720504790109091,0.5487402453403636,7.207975215109091
