"Time (s)","Linear Acceleration x (m/s^2)","Linear Acceleration y (m/s^2)","Linear Acceleration z (m/s^2)","Absolute acceleration (m/s^2)"
4.976541666E-3,-2.819527388E-3,-8.566176778E-1,5.081683561E-1,9.960104788E-1
1.493054167E-2,3.707052863E-1,-7.264162651E-1,8.199471572E-1,1.156467181E0
2.488454166E-2,6.039010173E-1,-7.073470330E-1,7.010139138E-1,1.164670241E0
3.483854167E-2,7.072189790E-1,-7.874445319E-1,6.744239929E-1,1.255020039E0
4.479254167E-2,8.085354388E-1,-8.981217992E-1,7.248249453E-1,1.409157026E0
5.474654167E-2,8.134973860E-1,-9.915831095E-1,9.238226509E-1,1.580652824E0
6.470154167E-2,8.675934863E-1,-1.048910381E0,1.090624125E0,1.744245518E0
7.465554167E-2,1.134151676E0,-1.056341900E0,1.191435970E0,1.954911227E0
8.460954167E-2,9.043099076E-1,-1.281520806E0,1.034938167E0,1.879140494E0
9.456354166E-2,1.160152490E0,-9.296356604E-1,1.014983082E0,1.800101918E0
1.045175417E-1,1.245898399E0,-1.185114253E0,1.055468911E0,2.017615730E0
1.144715417E-1,1.291097376E0,-1.243420056E0,7.199150383E-1,1.931658234E0
1.244265417E-1,1.409884146E0,-1.217423628E0,9.541220453E-1,2.092902882E0
1.343805417E-1,1.412042354E0,-1.036799336E0,1.162950382E0,2.102681636E0
1.443345417E-1,1.619547173E0,-7.346938759E-1,7.939495593E-1,1.947579020E0
1.542885417E-1,1.604773014E0,-4.051079643E-1,-9.398405135E-2,1.657782220E0
1.642425417E-1,1.404516987E0,-5.582658380E-2,-5.973804948E-1,1.527300897E0
1.741965417E-1,1.333689664E0,2.359836835E-1,-2.310731918E-1,1.373976433E0
1.841515417E-1,1.173028643E0,4.282170376E-1,5.478677344E-1,1.363644046E0
1.941055417E-1,1.001592373E0,5.849911219E-1,8.819524938E-1,1.457134893E0
2.040595417E-1,7.892548299E-1,6.064299381E-1,4.063341254E-1,1.075075754E0
2.140135417E-1,3.681623322E-1,6.684314740E-1,-4.574332353E-1,8.897130453E-1
2.239675417E-1,-3.957664526E-1,7.698528913E-1,-1.010294784E0,1.330413511E0
2.339215417E-1,-1.327575815E0,7.207921207E-1,-1.099840799E0,1.868595357E0
2.438755417E-1,-2.250305037E0,8.538665628E-1,-1.377039751E0,2.772940559E0
2.538305417E-1,-2.727976947E0,1.182619539E0,-1.293995841E0,3.242664404E0
2.637845417E-1,-2.194463543E0,1.770510295E0,-3.901730061E-1,2.846508725E0
2.737385417E-1,-8.264676797E-1,2.353856595E0,9.670376676E-1,2.675603025E0
2.836925417E-1,-2.528920770E-3,2.598554969E0,1.934373251E0,3.239489805E0
2.936465417E-1,-1.280680561E-1,2.256027415E0,1.999998014E0,3.017623763E0
3.036005417E-1,-3.780528975E-1,1.649501582E0,1.630304588E0,2.349823932E0
3.135555417E-1,-6.219121957E-1,1.103383919E0,1.070402115E0,1.658309844E0
3.235095417E-1,-7.881730950E-1,5.633815670E-1,3.668572336E-1,1.035953593E0
3.334635417E-1,-7.680113107E-1,1.678688836E-1,1.799334437E-2,7.863492201E-1
3.434175417E-1,-7.322818995E-1,-1.320976648E-1,1.833774537E-1,7.663640544E-1
3.533715417E-1,-8.646862507E-1,-2.629957733E-1,5.960724726E-1,1.082659449E0
3.633255417E-1,-9.779965192E-1,-3.067452255E-1,7.701139694E-1,1.282047328E0
3.732805417E-1,-1.150059611E0,-2.876502657E-1,6.716567981E-1,1.362535371E0
3.832345417E-1,-1.394001355E0,-2.286778799E-1,3.733704472E-1,1.461142991E0
3.931885417E-1,-1.635083810E0,-1.259270981E-1,-6.868431866E-2,1.641363529E0
4.031425417E-1,-1.944740072E0,-1.213422963E-1,-4.309088033E-1,1.995600235E0
4.130965417E-1,-2.640097389E0,-2.632621139E-2,-6.617872828E-1,2.721905528E0
4.230505417E-1,-3.302697435E0,-4.485194474E-2,-8.674838510E-1,3.415018342E0
4.330055417E-1,-3.419245307E0,-1.687611687E-1,-1.017675725E0,3.571467861E0
4.429595417E-1,-3.191821362E0,-7.277298421E-2,-7.357580692E-1,3.276333233E0
4.529135417E-1,-2.965121303E0,1.311200103E-1,-4.075561935E-1,2.995870299E0
4.628675417E-1,-2.825663456E0,1.718949839E-1,-3.165741026E-1,2.848533134E0
4.728215417E-1,-2.575565763E0,2.510750547E-1,8.394964457E-2,2.589136000E0
4.827755417E-1,-2.578632628E0,4.359844789E-1,1.216741258E0,2.884421603E0
4.927295417E-1,-2.301672826E0,2.832487741E-1,1.404920153E0,2.711407071E0
5.026845417E-1,-1.862341694E0,1.683430928E-1,7.657101390E-1,2.020635543E0
5.126385417E-1,-1.527654086E0,9.292395115E-2,3.071349424E-1,1.560991269E0
5.225925417E-1,-1.140987656E0,1.692318696E-1,6.230240437E-1,1.310973384E0
5.325465417E-1,-9.901552194E-1,4.100462303E-1,1.177504394E0,1.592187762E0
5.425005417E-1,-4.846242499E-1,4.145977029E-1,1.572342601E0,1.696765504E0
5.524545417E-1,1.890802431E-1,-1.289620954E-1,2.337370370E0,2.348549086E0
5.624095417E-1,6.462401211E-1,-6.314861342E-1,2.896047560E0,3.033725845E0
5.723635417E-1,7.643497843E-1,-1.034444954E0,2.947173859E0,3.215608918E0
5.823175417E-1,9.138139719E-1,-1.774737832E0,2.845450141E0,3.475821752E0
5.922715417E-1,1.286144199E0,-2.150126153E0,2.311884696E0,3.409108421E0
6.022255417E-1,1.536861697E0,-2.468904656E0,1.479471275E0,3.262862138E0
6.121795417E-1,1.099213977E0,-3.176181230E0,1.042763788E0,3.519055966E0
6.221345417E-1,5.034446830E-1,-3.051753650E0,8.783772138E-1,3.215307671E0
6.320885417E-1,7.145338458E-1,-2.685144339E0,9.939883617E-1,2.951028905E0
6.420425417E-1,1.444257004E0,-2.181231001E0,1.196416044E0,2.876640110E0
6.519965417E-1,2.025834521E0,-1.381717524E0,1.357109517E0,2.802658571E0
6.619505417E-1,3.643219979E0,-1.031808445E-1,1.753637862E0,4.044619123E0
6.719045417E-1,5.331183084E0,1.460491213E0,1.749297181E0,5.797808921E0
6.818595417E-1,5.580207812E0,2.914682344E0,1.567026313E0,6.487654727E0
6.918135417E-1,4.419995096E0,3.549305802E0,1.255988939E0,5.806155056E0
7.017675417E-1,2.251803678E0,2.730813432E0,8.792832398E-1,3.647067427E0
7.117215417E-1,3.499733984E-2,2.060001556E0,-1.820790794E-1,2.068328798E0
7.216755417E-1,-1.768886231E0,1.715513431E0,-1.328481257E0,2.799429813E0
7.316292083E-1,-2.646448635E0,1.097514192E0,-2.012371015E0,3.501123374E0
7.415832083E-1,-2.788689757E0,5.385031262E-1,-2.380626902E0,3.705962847E0
7.515382083E-1,-2.492907768E0,2.819112235E-1,-2.721908122E0,3.701735661E0
7.614922083E-1,-1.905428072E0,4.834700096E-1,-3.075915807E0,3.650432500E0
7.714462083E-1,-9.939208263E-1,9.634632647E-1,-3.049753610E0,3.349199480E0
7.814002083E-1,-1.840007669E-1,8.921354198E-1,-2.336956972E0,2.508212467E0
7.913542083E-1,5.078131378E-2,-4.423213989E-2,-1.499700302E0,1.501211584E0
8.013082083E-1,3.277183110E-1,-4.426351020E-1,-1.291435930E0,1.403970044E0
8.112632083E-1,8.104673588E-1,1.484847790E-1,-1.507015169E0,1.717556343E0
8.212172083E-1,1.142239544E0,1.032548702E0,-2.181944069E0,2.670533265E0
8.311712083E-1,1.606528348E0,1.871475044E0,-3.406456569E0,4.205627008E0
8.411252083E-1,1.833264660E0,2.204042159E0,-2.466556706E0,3.781872967E0
8.510792083E-1,1.674334415E0,2.362386805E0,-1.285584621E0,3.168121678E0
8.610332083E-1,1.134044087E0,2.494059670E0,-4.258914538E-1,2.772683386E0
8.709882083E-1,1.006451994E-1,2.531948750E0,-2.048889215E-1,2.542218205E0
8.809422083E-1,-8.199269843E-1,2.363503916E0,-3.184726936E-1,2.521875468E0
8.908962083E-1,-1.119988550E0,2.091204346E0,-7.221363956E-1,2.479715899E0
9.008502083E-1,-1.069791958E0,1.766992025E0,-1.604270299E0,2.615415616E0
9.108042083E-1,-1.367225785E0,1.078186513E0,-2.048982332E0,2.688888451E0
9.207582083E-1,-1.649752135E0,3.281916431E-1,-2.001204733E0,2.614232630E0
9.307132083E-1,-1.366162176E0,-2.193825611E-1,-1.823843187E0,2.289308142E0
9.406672083E-1,-6.124899924E-1,-6.692728883E-1,-1.451730915E0,1.711897438E0
9.506212083E-1,5.548130572E-2,-1.022586801E0,-8.554043806E-1,1.334345756E0
9.605752083E-1,4.426821721E-1,-1.233946105E0,-1.554745406E-1,1.320137428E0
9.705292083E-1,6.526825833E-1,-1.600049048E0,5.034764041E-1,1.799899997E0
9.804832083E-1,6.670749199E-1,-2.175646618E0,9.868423332E-1,2.480380000E0
9.904382083E-1,7.069312960E-1,-2.589449977E0,1.391203316E0,3.023317665E0
1.000392208E0,8.768332565E-1,-2.889472366E0,1.773385663E0,3.501825784E0
1.010346208E0,9.377776158E-1,-2.711787761E0,2.127937431E0,3.572301419E0
1.020300208E0,1.017291563E0,-2.522221615E0,2.424536861E0,3.643468538E0
1.030254208E0,1.140825688E0,-2.472937188E0,2.720563263E0,3.849463086E0
1.040208208E0,1.355486915E0,-2.521042816E0,3.104226564E0,4.222466603E0
1.050162208E0,1.606454673E0,-2.699333777E0,3.544945825E0,4.736426961E0
1.060117208E0,1.742577268E0,-2.890243029E0,3.648052118E0,4.969744919E0
1.070071208E0,1.667142924E0,-2.983924779E0,3.247185724E0,4.714593062E0
1.080025208E0,1.376119400E0,-2.937756334E0,2.507735138E0,4.100347839E0
1.089979208E0,1.033353279E0,-2.806111536E0,1.783828205E0,3.481971283E0
1.099933208E0,6.329160708E-1,-2.605994089E0,1.311156834E0,2.985116444E0
1.109887208E0,3.159157062E-1,-2.534476794E0,1.022743653E0,2.751250612E0
1.119842208E0,8.549038589E-2,-2.617150576E0,7.261006616E-1,2.717353108E0
1.129796208E0,-1.681004333E-1,-2.538483891E0,2.107966559E-1,2.552761926E0
1.139750208E0,-1.945298481E-1,-2.006608876E0,-4.830501795E-1,2.073079477E0
1.149704208E0,2.159359199E-1,-1.173243236E0,-1.148783163E0,1.656149380E0
1.159658208E0,5.851244384E-1,-3.208928561E-1,-1.779668496E0,1.900674299E0
1.169612208E0,1.209791842E0,4.870046514E-1,-2.360630887E0,2.696914536E0
1.179566208E0,1.896201165E0,1.319572147E0,-2.819770047E0,3.645264411E0
1.189521208E0,2.384891569E0,2.125698532E0,-3.155959219E0,4.490699349E0
1.199475208E0,2.503384225E0,2.859643965E0,-3.442818649E0,5.128108465E0
1.209429208E0,1.916852946E0,3.376311541E0,-3.454828245E0,5.197080242E0
1.219383208E0,4.114907849E-1,3.418429620E0,-2.951427124E0,4.534965028E0
1.229337208E0,-1.697492312E0,3.180549685E0,-1.810583456E0,4.034301538E0
1.239291208E0,-3.696923731E0,2.920895303E0,-5.371088576E-1,4.742083969E0
1.249246208E0,-4.819340630E0,2.921005231E0,3.999782020E-1,5.649628149E0
1.259200208E0,-4.160230787E0,3.552890437E0,1.235146539E0,5.608577148E0
1.269154208E0,-1.381056789E0,4.669589928E0,1.846069477E0,5.207721236E0
1.279108208E0,1.987242898E0,5.180275803E0,1.939821394E0,5.877695022E0
1.289062208E0,4.458544035E0,4.622637956E0,1.665034418E0,6.634737086E0
1.299016208E0,5.036534870E0,3.024716125E0,1.211660905E0,5.998642620E0
1.308971208E0,3.390967587E0,5.117676097E-1,9.473813751E-1,3.557822190E0
1.318925208E0,1.541244185E0,-1.771175416E0,9.217229158E-1,2.522314240E0
1.328879208E0,3.492003965E-1,-3.247244781E0,1.055910375E0,3.432416977E0
1.338833208E0,-3.633927584E-1,-4.003523653E0,1.250876426E0,4.210100684E0
1.348787208E0,-6.891241854E-1,-3.960468850E0,1.476833889E0,4.282667859E0
1.358741208E0,-7.440769029E-1,-3.186232594E0,1.892928186E0,3.780066891E0
1.368696208E0,-7.659548450E-1,-2.012806925E0,2.117479394E0,3.020231369E0
1.378650208E0,-9.693753844E-1,-8.841323358E-1,1.758349548E0,2.193894199E0
1.388604208E0,-1.368908613E0,-7.475489795E-2,9.962100112E-1,1.694677985E0
1.398558208E0,-1.864834946E0,3.989128393E-1,1.271167141E-1,1.911255998E0
1.408512208E0,-2.409016011E0,6.270068747E-1,-6.113524166E-1,2.563249411E0
1.418466208E0,-2.950491570E0,6.572866809E-1,-1.229472401E0,3.263284950E0
1.428421208E0,-3.289365783E0,6.804399008E-1,-1.709768834E0,3.769115968E0
1.438375208E0,-3.557577565E0,6.538701528E-1,-2.047817421E0,4.156616472E0
1.448329208E0,-3.879194307E0,6.470382661E-1,-2.162502662E0,4.488120403E0
1.458283208E0,-4.259453943E0,6.386977977E-1,-2.025135486E0,4.759417665E0
1.468237208E0,-4.535588703E0,6.625357264E-1,-1.653745491E0,4.872924442E0
1.478191208E0,-4.576546694E0,6.163766366E-1,-1.189466628E0,4.768598396E0
1.488145208E0,-4.164232621E0,4.529539758E-1,-7.120555034E-1,4.248884991E0
1.498100208E0,-3.296812797E0,-7.406024873E-2,-2.882019505E-1,3.310214480E0
1.508054208E0,-2.213117915E0,-7.959808820E-1,8.192884684E-2,2.353335676E0
1.518008208E0,-1.211208622E0,-1.273382066E0,3.931998172E-1,1.800870431E0
1.527962208E0,-1.202719635E-1,-1.504064664E0,9.409567469E-1,1.778222556E0
1.537916208E0,9.069967031E-1,-1.427452691E0,1.468153697E0,2.239584667E0
1.547870208E0,1.594184291E0,-1.133156480E0,1.628958852E0,2.545382899E0
1.557825208E0,1.917490293E0,-9.778620332E-1,1.666983587E0,2.722465328E0
1.567779208E0,2.207710994E0,-9.890337235E-1,1.678440329E0,2.944373869E0
1.577733208E0,2.391374962E0,-9.496258289E-1,1.440798229E0,2.948959640E0
1.587687208E0,2.347096921E0,-1.006936728E0,1.119705545E0,2.788642329E0
1.597641208E0,2.257422853E0,-1.262006893E0,9.299376690E-1,2.748345575E0
1.607595208E0,2.412040776E0,-1.654349801E0,9.730677550E-1,3.082478682E0
1.617550208E0,2.610566027E0,-2.050396335E0,1.337899075E0,3.578987852E0
1.627504208E0,2.638765393E0,-2.395365102E0,1.998765129E0,4.086063975E0
1.637458208E0,2.465142850E0,-2.515510765E0,2.568718089E0,4.359247217E0
1.647412208E0,2.167126055E0,-2.248255003E0,2.918321066E0,4.274071097E0
1.657366208E0,1.772199848E0,-1.627788824E0,2.981504909E0,3.831417529E0
1.667320208E0,7.690795970E-1,-1.247720976E0,2.960795533E0,3.303725359E0
1.677274208E0,-4.676567996E-1,-9.721919882E-1,2.865742026E0,3.062080584E0
1.687229208E0,-9.565612113E-1,5.583564699E-2,2.743009847E0,2.905551581E0
1.697183208E0,-5.304418623E-2,2.010224794E0,2.590440495E0,3.279359597E0
1.707137208E0,1.248267106E0,3.859858149E0,2.074433654E0,4.556308888E0
1.717091208E0,2.348164623E0,4.802908784E0,7.625684300E-1,5.400307444E0
1.727045417E0,2.983641189E0,4.994970523E0,-1.210633256E0,5.942851012E0
1.736999417E0,2.987857617E0,4.826195320E0,-2.972037682E0,6.407219552E0
1.746954417E0,2.356970530E0,4.396724932E0,-3.892493506E0,6.327559237E0
1.756908417E0,7.366088390E-1,3.468524471E0,-3.789569355E0,5.189806401E0
1.766862417E0,-1.604428028E0,2.295363096E0,-3.001726043E0,4.105269817E0
1.776816417E0,-3.405099723E0,1.226913074E0,-2.123945683E0,4.196565867E0
1.786770417E0,-4.167612897E0,3.123565060E-1,-1.523902074E0,4.448465058E0
1.796724417E0,-3.990110725E0,-5.273978019E-1,-1.026610855E0,4.153680523E0
1.806679417E0,-3.016862145E0,-1.375732899E0,-8.114666480E-1,3.413587018E0
1.816633417E0,-1.837608556E0,-1.825094930E0,-9.410802694E-1,2.755614048E0
1.826587417E0,4.908907109E-1,-1.916890368E0,-2.169215850E0,2.936143692E0
1.836541417E0,5.008473498E-1,-1.906861224E0,-1.694098004E0,2.599410672E0
1.846495417E0,1.388368732E-1,-1.580638631E0,-2.602481666E-1,1.607925144E0
1.856449417E0,2.533746477E0,-1.433106948E0,-7.979929090E-2,2.912049907E0
1.866403417E0,2.258511604E0,-8.634407938E-1,2.257666974E-1,2.428451208E0
1.876358417E0,1.629793249E0,2.683363277E-1,-3.663311304E-1,1.691871425E0
1.886312417E0,3.617157769E-1,1.344842058E0,-1.019026724E0,1.725645945E0
1.896266417E0,-1.806029499E-1,2.303714674E0,-1.376656174E0,2.689777118E0
1.906220417E0,-5.718869269E-1,2.639812630E0,-1.239382262E0,2.971823307E0
1.916174417E0,-4.279681216E0,1.689713176E0,-2.404430771E0,5.191540163E0
1.926128417E0,-5.828108706E0,-1.181142824E0,-6.775252099E-1,5.985063898E0
1.936083417E0,-3.034054129E0,-9.158452946E-1,2.558459441E-1,3.179577677E0
1.946037417E0,3.491547883E-2,1.250208381E0,-1.281396406E0,1.790591198E0
1.955991417E0,2.543894904E0,1.810699085E0,-9.875422449E-1,3.274946129E0
1.965945417E0,2.595226441E0,4.227764958E-1,4.116249785E-2,2.629759418E0
1.975899417E0,2.232634166E0,-1.588986701E-1,4.527323663E-2,2.238739327E0
1.985853417E0,2.530056884E0,-9.497632384E-3,3.783130985E-1,2.558202267E0
1.995808417E0,1.448818417E0,-4.226203752E-1,-4.985733676E-1,1.589420709E0
2.005762417E0,-6.581696105E-1,-8.996397364E-1,-3.916446918E0,4.071989115E0
2.015716417E0,-8.893948299E-1,-1.784151556E0,-2.038379722E0,2.851177271E0
2.025670417E0,-1.054761105E0,-2.460669730E0,4.056704664E-1,2.707763844E0
2.035624417E0,-1.955673780E0,-2.087814422E0,7.657646643E-1,2.961422719E0
2.045578417E0,-1.300217278E0,-1.479175406E0,8.707498133E-1,2.153306780E0
2.055533417E0,-6.977862507E-1,-7.535172325E-1,4.140570547E-1,1.107310759E0
2.065487417E0,1.283118850E0,-7.190736240E-1,-1.536450199E-1,1.478873778E0
2.075441417E0,1.844368522E0,6.389018655E-2,-1.570304847E-1,1.852143562E0
2.085395417E0,8.226699132E-1,-2.704021490E-1,-3.620373738E-1,9.386022417E-1
2.095349417E0,-3.836580384E-1,-2.796898663E-1,5.580412684E-1,7.326868151E-1
2.105303417E0,-3.315271872E-1,-5.466053206E-1,-1.605738974E-1,6.591446191E-1
2.115257417E0,3.411768472E-1,-5.886304289E-1,-8.337620813E-1,1.076125751E0
2.125212417E0,1.748543767E0,-4.273326463E-1,-2.248406446E-1,1.813993333E0
2.135166417E0,3.073441558E0,-3.950758964E-1,1.099249645E0,3.287929098E0
2.145120417E0,2.988462803E0,2.341634452E-2,2.342114509E0,3.796967030E0
2.155074417E0,2.473039514E0,9.052986717E-1,2.865332136E0,3.891737192E0
2.165028417E0,2.330146428E0,1.041908925E0,2.343714307E0,3.465278248E0
2.174982417E0,1.702685224E0,6.321079856E-1,1.001949053E0,2.074270808E0
2.184937417E0,1.249810771E0,1.095446616E-1,-2.486294202E-1,1.279001010E0
2.194891417E0,7.644936258E-1,-3.014187044E-1,-4.980658293E-1,9.609231548E-1
2.204845417E0,5.761197263E-1,-1.079559731E-1,8.373912653E-2,5.920985327E-1
2.214799417E0,4.960035163E-1,-4.813018620E-2,3.839667714E-1,6.290997413E-1
2.224753417E0,7.699742210E-1,-2.530598921E-1,3.416820467E-1,8.795716179E-1
2.234707417E0,1.467001503E0,-5.068454236E-1,1.513672370E-2,1.552164558E0
2.244661417E0,1.953285193E0,-7.918533325E-1,-5.615011024E-1,2.181201099E0
2.254616417E0,2.014762233E0,-7.043018031E-1,-8.309840691E-1,2.290380407E0
2.264570417E0,2.138154856E0,-3.046060216E-1,-6.145698470E-1,2.245481488E0
2.274524417E0,2.185689211E0,1.187622124E-1,-4.112025172E-1,2.227202124E0
2.284478417E0,1.946484296E0,1.865022057E-1,-7.405943012E-1,2.090948136E0
2.294432417E0,1.553972989E0,1.594348598E-1,-1.182613399E0,1.959292213E0
2.304386417E0,1.444448208E0,1.627093005E-1,-1.492322870E0,2.083250463E0
2.314341417E0,9.761259949E-1,1.118508035E-1,-1.882951959E0,2.123873970E0
2.324295417E0,-2.673165733E-1,1.225096929E-1,-1.840723953E0,1.864063155E0
2.334249417E0,-1.129479166E0,5.965387881E-1,-1.135027077E0,1.708762177E0
2.344203417E0,-1.335695844E0,1.119834183E0,-5.408083910E-1,1.824989233E0
2.354157417E0,-1.567411644E0,1.363494676E0,-2.281204940E-1,2.089960755E0
2.364111417E0,-2.215586025E0,9.711237019E-1,-3.483240451E-1,2.444019705E0
2.374066417E0,-2.825077565E0,3.126430196E-1,-8.103866673E-1,2.955593926E0
2.384020417E0,-2.689658389E0,7.383571565E-2,-7.391168560E-1,2.790341859E0
2.393974417E0,-2.494744379E0,-9.449626744E-2,-4.841974032E-1,2.543054499E0
2.403928417E0,-2.143089906E0,-9.761224866E-2,-2.855701187E-1,2.164234920E0
2.413882417E0,-1.408164480E0,1.530760127E-1,-4.653638139E-2,1.417224437E0
2.423836417E0,-3.704497629E-1,2.102033097E-1,3.935939196E-1,5.799436453E-1
2.433790417E0,7.604485220E-1,-3.265786886E-2,1.488370591E0,1.671704372E0
2.443745417E0,1.227940430E0,-4.690039980E-1,2.689743174E0,2.993746948E0
2.453699417E0,1.204861470E0,-5.196859092E-1,2.810289079E0,3.101530157E0
2.463653417E0,9.317456281E-1,-5.812845719E-1,1.685499673E0,2.011703461E0
2.473607417E0,6.541087192E-1,-5.407516730E-1,1.292052080E0,1.545855480E0
2.483561417E0,5.833217418E-1,-3.072916478E-1,1.916556931E0,2.026791277E0
2.493515417E0,4.589409399E-1,-4.552197719E-1,2.272637600E0,2.362780880E0
2.503470417E0,-7.512385726E-2,-4.708739376E-1,2.146282486E0,2.198611918E0
2.513424417E0,-9.349750453E-1,-2.371215516E-1,1.729215796E0,1.980048544E0
2.523378417E0,-1.584234084E0,2.322221696E-2,1.061916635E0,1.907355196E0
2.533332417E0,-2.042933534E0,3.370510519E-2,5.364118695E-1,2.112451455E0
2.543286417E0,-2.411958915E0,-2.488411260E-1,1.013416028E-1,2.426878208E0
2.553240417E0,-2.666247892E0,-5.135194355E-1,-2.281704877E-1,2.724819591E0
2.563195417E0,-2.692783141E0,-6.700037903E-1,-4.575142193E-1,2.812348731E0
2.573149417E0,-2.530086120E0,-8.654528207E-1,-5.883756365E-1,2.737979227E0
2.583103417E0,-2.404523596E0,-1.125234087E0,-7.493753573E-1,2.758522956E0
2.593057417E0,-2.220766658E0,-1.344891760E0,-1.036086560E0,2.795355747E0
2.603011417E0,-2.005751674E0,-1.376838607E0,-1.126762842E0,2.681104032E0
2.612965417E0,-1.956979464E0,-1.373812673E0,-8.836914557E-1,2.549125433E0
2.622919417E0,-1.788442828E0,-1.284413424E0,-4.238564765E-1,2.242297907E0
2.632874417E0,-1.421813051E0,-1.041421852E0,6.926012322E-2,1.763776854E0
2.642828417E0,-1.066188903E0,-9.427132505E-1,5.480291176E-1,1.525058348E0
2.652782417E0,-6.187377423E-1,-8.560358799E-1,9.731180410E-1,1.436172881E0
2.662736417E0,-1.781968206E-1,-7.955686533E-1,1.271233069E0,1.510204325E0
2.672690417E0,3.094106787E-1,-5.619221020E-1,1.218681949E0,1.377199009E0
2.682644417E0,8.623613977E-1,-3.259992296E-1,1.181575518E0,1.498687220E0
2.692599417E0,1.340801048E0,-3.049229407E-1,1.555468706E0,2.076104127E0
2.702553417E0,2.065931218E0,-3.509282488E-1,2.166740578E0,3.014297126E0
2.712507417E0,3.199370118E0,-2.092847121E-1,2.596118141E0,4.125481626E0
2.722461417E0,4.195545630E0,-3.600101441E-1,2.684813094E0,4.994039626E0
2.732415292E0,4.601781523E0,-6.249878311E-1,2.705892599E0,5.374835600E0
2.742369292E0,4.310253968E0,-8.144270933E-1,2.454327255E0,5.026460289E0
2.752323292E0,3.839166607E0,-8.625005615E-1,1.831562097E0,4.340245059E0
2.762278292E0,3.279781612E0,-7.627570027E-1,1.295607187E0,3.607958377E0
2.772232292E0,2.372003136E0,-7.776650637E-1,7.260071062E-1,2.599663084E0
2.782186292E0,1.236187343E0,-9.601625115E-1,-5.058455497E-2,1.566087479E0
2.792140292E0,1.120899546E-1,-1.273108417E0,-4.901254566E-1,1.368792227E0
2.802094292E0,-9.168048227E-1,-1.239226141E0,2.894532546E-2,1.541768576E0
2.812048292E0,-1.680021417E0,-9.521003705E-1,1.266115585E0,2.309115794E0
2.822003292E0,-7.821943170E-1,-1.521322721E-1,2.740421576E0,2.853924070E0
2.831957292E0,5.409732825E-1,1.980750149E0,4.111521142E0,4.595718588E0
2.841911292E0,4.919490570E-1,3.657499464E0,3.940193922E0,5.398559470E0
2.851865292E0,-5.943753183E-1,3.868613185E0,1.979963553E0,4.386308889E0
2.861819292E0,-8.232359236E-1,2.761436470E0,-3.107796581E-1,2.898246497E0
2.871773292E0,-3.241526788E-1,1.429498047E0,-1.978155886E0,2.462039873E0
2.881728292E0,-1.129436481E-1,6.183746302E-1,-2.833127134E0,2.902025639E0
2.891682292E0,8.232821167E-2,3.141592026E-1,-2.710447872E0,2.729835454E0
2.901636292E0,-1.352496064E-1,1.929113388E-2,-2.267668929E0,2.271780573E0
2.911590292E0,-5.490061873E-1,-1.194989616E-1,-2.107805029E0,2.181405473E0
2.921544292E0,-6.242925972E-1,1.506090724E-1,-2.395534086E0,2.480122557E0
2.931498292E0,2.548368609E-1,4.090905029E-1,-2.892620507E0,2.932498979E0
2.941452292E0,1.595502253E0,6.852176607E-2,-3.199806320E0,3.576182764E0
2.951407292E0,1.676343518E0,-4.421360421E-1,-3.198623428E0,3.638241843E0
2.961361292E0,7.170703679E-1,-4.596426058E-1,-3.068382547E0,3.184404606E0
2.971315292E0,7.773580849E-2,-4.439089179E-2,-2.401783006E0,2.403450647E0
2.981269292E0,-2.459724820E-1,2.913480449E-1,-1.396851434E0,1.447957207E0
2.991223292E0,-6.516868025E-1,4.686169124E-1,-3.817161781E-1,8.888221080E-1
3.001177292E0,-1.386737359E0,4.347586101E-1,3.027966008E-2,1.453606690E0
3.011132292E0,-1.823581671E0,3.258536339E-1,-3.957512498E-2,1.852888796E0
3.021086292E0,-1.851049551E0,2.536756039E-1,5.119646609E-2,1.869052388E0
3.031040292E0,-1.860621443E0,1.064041221E-1,2.066363619E-1,1.875082019E0
3.040994292E0,-1.671473372E0,-3.721296680E-1,4.960033701E-1,1.782785199E0
3.050948292E0,-1.366948042E0,-9.123299485E-1,3.184176566E-1,1.674001998E0
3.060902292E0,-1.176256891E0,-1.349251444E0,-1.004896635E-1,1.792807269E0
3.070857292E0,-1.013767446E0,-1.765171494E0,-4.304158831E-1,2.080579888E0
3.080811292E0,-5.347360575E-1,-1.972752913E0,-6.445308338E-1,2.143155781E0
3.090765292E0,1.194352269E-2,-2.056579766E0,-9.975104320E-1,2.285758089E0
3.100719292E0,2.224865556E-1,-2.171575786E0,-1.178589930E0,2.480789368E0
3.110673292E0,3.191474622E-1,-2.064551275E0,-9.190759543E-1,2.282307534E0
3.120627292E0,3.351021749E-1,-1.716707432E0,-5.728856313E-1,1.840536830E0
3.130581292E0,2.017067206E-1,-1.291704317E0,-3.306056660E-1,1.348512421E0
3.140536292E0,-3.367177606E-2,-9.595994246E-1,-1.767297542E-1,9.763187237E-1
3.150490292E0,-4.578896105E-2,-7.297021079E-1,-1.002785790E-1,7.379821059E-1
3.160444292E0,-5.947495401E-2,-6.070982748E-1,4.043115735E-2,6.113430002E-1
3.170398292E0,-4.556951505E-1,-4.917677933E-1,3.175856344E-1,7.418586576E-1
3.180352292E0,-6.723251349E-1,-2.394323713E-1,5.244180608E-1,8.856428455E-1
3.190306292E0,-2.692332906E-1,7.747326851E-2,4.824882621E-1,5.579279479E-1
3.200261292E0,2.320262879E-1,-9.480675459E-3,3.102608639E-1,3.875408174E-1
3.210215292E0,7.822972280E-1,-4.735975707E-1,-3.556920667E-2,9.151769120E-1
3.220169292E0,1.178729678E0,-8.935270572E-1,-4.793792975E-1,1.554862942E0
3.230123292E0,1.348591293E0,-1.113013406E0,-7.851120776E-1,1.916741582E0
3.240077292E0,1.567557825E0,-1.035162992E0,-9.540802377E-1,2.106909836E0
3.250031292E0,1.933772449E0,-8.605663025E-1,-1.045979757E0,2.360958259E0
3.259985292E0,2.163655733E0,-6.554237580E-1,-1.028228779E0,2.483594342E0
3.269940292E0,2.410281934E0,-3.427164191E-1,-1.075633911E0,2.661560041E0
3.279894292E0,2.904576893E0,-1.099007571E-1,-1.200188960E0,3.144693728E0
3.289848292E0,3.448933375E0,-1.002119207E-1,-1.194560430E0,3.651322839E0
3.299802292E0,3.942929542E0,-9.222286999E-2,-1.120407211E0,4.100062286E0
3.309756292E0,4.462083355E0,-2.244360173E-1,-8.047101903E-1,4.539616490E0
3.319710292E0,4.723234624E0,-3.678278714E-1,-1.883751054E-1,4.741279135E0
3.329665292E0,4.602316543E0,-4.440211844E-1,3.201637083E-1,4.634757510E0
3.339619292E0,4.228291208E0,-3.124307656E-1,1.823460048E-1,4.243737690E0
3.349573292E0,3.565757820E0,1.120174491E-1,-8.654876847E-2,3.568566579E0
3.359527292E0,2.778402166E0,4.605939478E-1,-3.232258952E-1,2.834808699E0
3.369481292E0,1.723197257E0,6.188219422E-1,-3.881112047E-1,1.871624880E0
3.379435292E0,3.970031387E-1,7.814318401E-1,-5.236108527E-3,8.765127664E-1
3.389390292E0,-7.187350702E-1,1.130878404E0,2.137595862E-1,1.356893226E0
3.399344292E0,-1.264146974E0,1.607558627E0,2.860070519E-1,2.064972723E0
3.409298292E0,-1.342041827E0,1.848929935E0,5.538337947E-1,2.350819015E0
3.419252292E0,-1.035697428E0,1.865225540E0,7.926520622E-1,2.275968535E0
3.429206292E0,-1.384946941E0,1.761805252E0,4.727140564E-1,2.290304424E0
3.439160292E0,-2.312156884E0,1.739144368E0,-4.079730999E-1,2.921837545E0
3.449114292E0,-2.925086587E0,1.956585361E0,-1.046742234E0,3.671515644E0
3.459069292E0,-2.917912638E0,2.409820588E0,-1.077736716E0,3.934840004E0
3.469023292E0,-2.723634805E0,2.720738094E0,-5.521063811E-1,3.889141780E0
3.478977292E0,-2.063747283E0,2.822739263E0,2.553718811E-1,3.506012634E0
3.488931292E0,-1.132714430E0,2.600743874E0,9.681881073E-1,2.997382006E0
3.498885292E0,-4.583614808E-1,1.775410554E0,1.051709736E0,2.113828576E0
3.508839292E0,4.533697128E-1,8.196580124E-1,7.294417606E-1,1.187210443E0
3.518794292E0,1.273314824E0,2.176450610E-2,5.433997308E-1,1.384589326E0
3.528748292E0,1.669699911E0,-3.587015373E-1,6.493245274E-1,1.827070587E0
3.538702292E0,1.447375908E0,-3.463820386E-1,9.636408739E-1,1.772986540E0
3.548656292E0,1.071956597E0,-5.261307102E-1,1.192745747E0,1.687763872E0
3.558610292E0,6.145388567E-1,-6.823747444E-1,1.268395853E0,1.565925075E0
3.568564292E0,1.322341973E-1,-7.755039328E-1,1.344649685E0,1.557875158E0
3.578518292E0,-1.857438219E-1,-8.079156339E-1,1.235428228E0,1.487787399E0
3.588473292E0,-6.270793802E-1,-9.536533910E-1,1.031258660E0,1.538238526E0
3.598427292E0,-1.185093203E0,-1.152243546E0,6.390122317E-1,1.772130842E0
3.608381292E0,-1.838599074E0,-1.356423054E0,1.120301668E-1,2.287549085E0
3.618335292E0,-2.141549165E0,-1.355966971E0,-4.290286312E-1,2.570786809E0
3.628289292E0,-2.236475787E0,-1.192885203E0,-8.175313801E-1,2.663298070E0
3.638243292E0,-2.273164726E0,-1.099943710E0,-1.139961177E0,2.770679614E0
3.648198292E0,-2.391225273E0,-1.177817513E0,-1.348632224E0,2.987310040E0
3.658152292E0,-2.621071719E0,-1.295395079E0,-1.518135989E0,3.294359156E0
3.668106292E0,-2.744992345E0,-1.184655831E0,-1.801501415E0,3.490530011E0
3.678060292E0,-2.615973532E0,-1.092914187E0,-2.003106540E0,3.471341923E0
3.688014292E0,-2.662119758E0,-1.250392569E0,-2.216269564E0,3.682691130E0
3.697968292E0,-2.639959980E0,-1.481522478E0,-2.302611012E0,3.803460927E0
3.707922292E0,-2.455232989E0,-1.402587991E0,-2.016701170E0,3.473111819E0
3.717877292E0,-2.305509769E0,-1.099742566E0,-1.332126411E0,2.880862680E0
3.727832833E0,-1.986586255E0,-7.181140959E-1,-4.532051137E-1,2.160464691E0
3.737786833E0,-1.465059058E0,-4.040472794E-1,3.019949475E-1,1.549468682E0
3.747740833E0,-1.047460856E0,-3.223265934E-1,1.313545421E0,1.710692916E0
3.757694833E0,-7.399908686E-1,-3.712707120E-1,2.096812118E0,2.254340144E0
3.767648833E0,-1.965716958E-1,-2.064704472E-1,2.260126605E0,2.278034843E0
3.777603833E0,5.801472884E-1,4.389528179E-1,2.225974626E0,2.341839766E0
3.787557833E0,1.563832564E0,1.079909980E0,2.268423658E0,2.959311363E0
3.797511833E0,2.891662733E0,1.290587499E0,2.189358777E0,3.849756006E0
3.807465833E0,4.583259882E0,9.158604974E-1,2.122820679E0,5.133365293E0
3.817419833E0,6.219455248E0,3.532484239E-1,2.328705674E0,6.650509616E0
3.827373833E0,6.245364261E0,-2.274455792E-1,1.994518588E0,6.560061786E0
3.837328833E0,5.350054387E0,-7.320766622E-1,1.279375463E0,5.549398144E0
3.847282833E0,4.842371058E0,-6.749265611E-1,9.223735647E-1,4.975425240E0
3.857236833E0,3.649394054E0,1.978785485E-1,1.234121376E0,3.857497693E0
3.867190833E0,1.995567579E0,2.216784704E0,2.055246454E0,3.622217880E0
3.877144833E0,9.339248854E-1,4.303496926E0,2.713391068E0,5.172503511E0
3.887098833E0,-1.138949901E-1,4.714186057E0,2.745122153E0,5.456392388E0
3.897052833E0,-6.276746267E-1,4.401752368E0,1.853209512E0,4.817030708E0
3.907007833E0,-1.140739734E0,4.255205941E0,4.442672060E-1,4.427802852E0
3.916961833E0,-1.284363722E0,4.347796016E0,-7.450054407E-1,4.594339286E0
3.926915833E0,-1.704620653E0,3.400152978E0,-1.538031725E0,4.102720248E0
3.936869833E0,-2.087512706E0,1.893726039E0,-2.657788725E0,3.873983546E0
3.946823833E0,-2.210738098E0,6.532439160E-1,-3.775717885E0,4.423814655E0
3.956777833E0,-2.847679977E0,-6.130314445E-1,-4.277244682E0,5.174931001E0
3.966732833E0,-3.079042021E0,-1.219810461E0,-4.272972706E0,5.406175457E0
3.976686833E0,-2.946845831E0,-1.164062523E0,-3.913326843E0,5.035183104E0
3.986640833E0,-2.594987290E0,-8.164537382E-1,-3.043362311E0,4.081986024E0
3.996594833E0,-1.824144757E0,-1.445115960E-1,-1.915080801E0,2.648758610E0
4.006548833E0,-1.185727041E0,2.267012286E-1,-1.069214399E0,1.612625652E0
4.016502833E0,-5.449850571E-1,1.822395855E-1,-3.147468477E-1,6.551988684E-1
4.026456833E0,-2.191670913E-1,3.700398731E-1,8.046923563E-2,4.375374492E-1
4.036411833E0,-3.038429600E-1,1.674975854E-1,6.093193397E-2,3.522622404E-1
4.046365833E0,-3.522701848E-1,-1.562791175E-1,-1.608095402E-1,4.175849061E-1
4.056319833E0,-2.890419030E-1,-2.116066414E-1,-4.712743257E-1,5.919645956E-1
4.066273833E0,-4.804434907E-1,-2.102296221E-1,-8.171980888E-1,9.709969918E-1
4.076227833E0,-1.034668318E0,-1.597459316E-2,-1.226737804E0,1.604892319E0
4.086181833E0,-1.456662456E0,8.575117171E-2,-1.613398388E0,2.175378848E0
4.096136833E0,-1.620009103E0,-7.792584300E-3,-1.646101719E0,2.309575954E0
4.106090833E0,-1.606002098E0,-3.257051146E-1,-1.373951837E0,2.138473804E0
4.116044833E0,-1.386029261E0,-6.985189068E-1,-1.205256157E0,1.965107676E0
4.125998833E0,-1.071987587E0,-9.735005951E-1,-1.192533200E0,1.875898779E0
4.135952833E0,-6.574229211E-1,-1.095539002E0,-9.150522660E-1,1.571537862E0
4.145906833E0,-1.510973150E-1,-1.303461898E0,-5.252500465E-1,1.413411097E0
4.155860833E0,7.238852978E-3,-1.538069147E0,-2.937897690E-1,1.565893205E0
4.165815833E0,9.819521606E-2,-1.635034693E0,-2.958065468E-1,1.664476573E0
4.175769833E0,2.651712298E-1,-1.444261681E0,-3.434444705E-1,1.508032390E0
4.185723833E0,3.374252737E-1,-1.187268952E0,-2.059582311E-1,1.251352138E0
4.195677833E0,1.367371380E-1,-6.876027399E-1,6.184417270E-2,7.037892260E-1
4.205631833E0,-1.843124235E-1,-3.507475698E-1,3.362388736E-1,5.196648028E-1
4.215585833E0,-1.578473407E-1,-2.177538192E-1,2.687386161E-1,3.802012001E-1
4.225540833E0,-9.793150663E-2,-1.734319246E-1,-2.410280764E-2,2.006244197E-1
4.235494833E0,-2.497170389E-1,-3.091797137E-1,3.343986087E-3,3.974441811E-1
4.245448833E0,-2.117797190E-1,-5.011619300E-1,2.046963289E-1,5.813041514E-1
4.255402833E0,-6.930178463E-2,-5.846806347E-1,3.205460797E-1,6.703759924E-1
4.265356833E0,-2.250985068E-1,-8.281861764E-1,3.431333256E-1,9.242846746E-1
4.275310833E0,-3.511481041E-1,-1.079454482E0,2.988330656E-1,1.173809256E0
4.285265833E0,2.133707464E-2,-9.401258576E-1,1.613930923E-1,9.541171988E-1
4.295219833E0,4.146535438E-1,-7.077738798E-1,-4.812843204E-2,8.217041878E-1
4.305173833E0,6.915034175E-1,-4.564149427E-1,-2.700548244E-1,8.714477520E-1
4.315127833E0,8.654721165E-1,-1.752100629E-1,-6.673420646E-1,1.106836023E0
4.325081833E0,1.151210927E0,1.395794696E-1,-1.144457320E0,1.629279468E0
4.335035833E0,1.646251407E0,4.643472755E-1,-1.639309593E0,2.369197761E0
4.344989833E0,2.026632081E0,7.262048882E-1,-2.052793109E0,2.974654716E0
4.354944833E0,2.233996568E0,9.031141520E-1,-2.118158548E0,3.208262999E0
4.364898833E0,2.404963891E0,1.054427229E0,-1.608266725E0,3.079316476E0
4.374852833E0,2.452473103E0,1.397986817E0,-6.464382686E-1,2.896009996E0
4.384806833E0,2.466376612E0,2.004828399E0,7.155430752E-1,3.257967525E0
4.394760833E0,2.408369894E0,2.336258522E0,2.274668046E0,4.053697590E0
4.404714833E0,1.930015029E0,2.125651170E0,2.699631400E0,3.940984725E0
4.414669833E0,1.045968062E0,1.544964768E0,1.476100940E0,2.379041678E0
4.424623833E0,-2.708909762E-1,1.258236609E0,-1.904308768E-1,1.301078477E0
4.434577833E0,-1.604302897E0,1.276346020E0,-1.045369234E0,2.301226583E0
4.444531833E0,-2.461014715E0,1.278787817E0,-1.179537179E0,3.013834711E0
4.454485833E0,-3.163913187E0,1.185331185E0,-1.237763606E0,3.598251717E0
4.464439833E0,-3.845876872E0,1.233555511E0,-1.397053601E0,4.273661999E0
4.474393833E0,-4.393246424E0,1.499588036E0,-1.287811679E0,4.817451332E0
4.484348833E0,-4.637589871E0,1.978394891E0,-9.454661196E-1,5.129833559E0
4.494302833E0,-4.538057397E0,2.453289374E0,-6.439575143E-1,5.198776296E0
4.504256833E0,-3.972756774E0,2.830628911E0,-8.381036389E-1,4.949512514E0
4.514210833E0,-2.927578086E0,3.301835555E0,-1.173711452E0,4.566227114E0
4.524164833E0,-1.910419840E0,3.490218226E0,-1.217298936E0,4.160906623E0
4.534118833E0,-7.723259711E-1,3.581687390E0,-7.492663068E-1,3.739835820E0
4.544073833E0,6.133144498E-1,3.382747571E0,5.675430304E-1,3.484428337E0
4.554027833E0,1.924726807E0,2.568173128E0,2.226263479E0,3.905935941E0
4.563981833E0,2.915649181E0,1.736742917E0,3.457138773E0,4.844491160E0
4.573935833E0,3.088661860E0,9.668008554E-1,3.691764148E0,4.909547688E0
4.583889833E0,3.219682176E0,8.148913622E-2,3.074070718E0,4.452292058E0
4.593843833E0,2.935540824E0,-6.240253794E-1,2.242004914E0,3.746117142E0
4.603798833E0,1.630406622E0,-1.038988241E0,1.727288554E0,2.592536994E0
4.613752833E0,5.920890570E-2,-1.100127897E0,1.658456154E0,1.991045931E0
4.623706833E0,-9.781520551E-1,-1.043749629E0,1.605658282E0,2.150426295E0
4.633660833E0,-1.796304410E0,-9.550315797E-1,1.397691386E0,2.468265800E0
4.643614833E0,-2.638480049E0,-9.625323880E-1,9.174002154E-1,2.954601280E0
4.653568833E0,-3.223382878E0,-9.562191492E-1,1.450980717E-1,3.365353725E0
4.663522833E0,-3.680166196E0,-9.552964586E-1,-5.840368563E-1,3.846727648E0
4.673477833E0,-3.935760271E0,-9.341716379E-1,-1.076667699E0,4.185940622E0
4.683431833E0,-3.955238516E0,-9.303259242E-1,-1.162976549E0,4.226337953E0
4.693385833E0,-3.865372074E0,-8.693242621E-1,-1.217718328E0,4.144835807E0
4.703339833E0,-3.709385317E0,-7.384109509E-1,-1.421476251E0,4.040468401E0
4.713293833E0,-3.436313914E0,-7.092333448E-1,-1.801342371E0,3.944122157E0
4.723247833E0,-3.030564510E0,-8.397964078E-1,-2.038151827E0,3.747484773E0
4.733201958E0,-2.630218518E0,-8.950753999E-1,-1.946066220E0,3.392106007E0
4.743155958E0,-2.326681952E0,-7.729112774E-1,-1.731372249E0,3.001414769E0
4.753109958E0,-2.108896558E0,-6.816853577E-1,-1.227463882E0,2.533536501E0
4.763063958E0,-1.788192567E0,-6.138225728E-1,-4.393358105E-1,1.940986028E0
4.773017958E0,-1.644223008E0,-4.952808005E-1,3.021427359E-1,1.743577530E0
4.782971958E0,-1.493301694E0,-5.587137347E-1,9.995003857E-1,1.881784262E0
4.792925958E0,-1.241525266E0,-8.292603099E-1,1.508813627E0,2.122634261E0
4.802880958E0,-6.051722020E-1,-9.225988287E-1,1.757077925E0,2.074787899E0
4.812834958E0,4.100447685E-1,-8.675946558E-1,1.888463983E0,2.118290210E0
4.822788958E0,1.484243773E0,-7.619769841E-1,1.698353607E0,2.380754812E0
4.832742958E0,2.073418577E0,-6.129279488E-1,1.477025385E0,2.618463148E0
4.842696958E0,2.478231842E0,-5.673910028E-1,1.264903019E0,2.839638227E0
4.852650958E0,3.114961467E0,-5.126049310E-1,1.066610488E0,3.332177469E0
4.862605958E0,3.758996018E0,-5.622185558E-1,9.350925013E-1,3.914145980E0
4.872559958E0,4.325684186E0,-6.400718933E-1,9.892878581E-1,4.483294120E0
4.882513958E0,4.555345275E0,-4.570142823E-1,1.175506035E0,4.726716309E0
4.892467958E0,4.424296893E0,-5.355839038E-1,1.580433394E0,4.728532841E0
4.902421958E0,3.775905581E0,-5.292654026E-1,1.864661138E0,4.244354601E0
4.912375958E0,2.707179571E0,-3.227470082E-1,1.751725384E0,3.240606221E0
4.922329958E0,1.507054930E0,2.263924956E-1,1.865920336E0,2.409175549E0
4.932284958E0,7.210499829E-1,1.404860803E0,2.997190357E0,3.387727408E0
4.942238958E0,4.052383572E-1,2.709783921E0,5.113918676E0,5.801664524E0
4.952192958E0,3.264962429E-1,3.254814586E0,6.180137985E0,6.992461892E0
4.962146958E0,2.781514639E-1,3.189126965E0,4.776027380E0,5.749637951E0
4.972100958E0,-1.096569282E-1,3.423020854E0,2.393625555E0,4.178341741E0
4.982054958E0,-1.062661863E0,3.647775545E0,9.835075200E-1,3.924640582E0
4.992009958E0,-2.165048540E0,3.374859678E0,4.194867061E-1,4.031511146E0
5.001963958E0,-2.566031878E0,2.877766240E0,-1.904572624E-1,3.860353883E0
5.011917958E0,-2.597608597E0,2.622804249E0,-1.093471500E0,3.849980840E0
5.021871958E0,-2.620463024E0,2.419061528E0,-1.904794818E0,4.043133492E0
5.031825958E0,-3.126771673E0,2.088541231E0,-2.495869968E0,4.513100095E0
5.041779958E0,-3.293385744E0,1.803376032E0,-2.946984410E0,4.773182574E0
5.051733958E0,-2.954595730E0,1.666976863E0,-3.313974375E0,4.742454423E0
5.061688958E0,-2.682202020E0,1.556289656E0,-3.412321619E0,4.610876706E0
5.071642958E0,-2.401124609E0,1.352288488E0,-3.197461587E0,4.221118826E0
5.081596958E0,-2.186256391E0,1.017946451E0,-2.635299749E0,3.572217343E0
5.091550958E0,-1.931730602E0,1.061352671E0,-1.919656832E0,2.922864171E0
5.101504958E0,-1.907988567E0,1.060721757E0,-1.494655910E0,2.645665759E0
5.111458958E0,-2.080369163E0,1.104036176E0,-1.493505177E0,2.788797132E0
5.121413958E0,-2.179085366E0,1.198290954E0,-1.402282766E0,2.854945043E0
5.131367958E0,-1.839233497E0,1.271533762E0,-1.016965288E0,2.456378709E0
5.141321958E0,-1.286970996E0,1.454708317E0,-6.386380099E-1,2.044585322E0
5.151275958E0,-8.127770090E-1,1.447270074E0,-5.436588355E-1,1.746643084E0
5.161229958E0,-8.069274545E-2,1.004340565E0,-5.036277008E-1,1.126433376E0
5.171183958E0,5.087709117E-1,3.904063100E-1,-2.342488146E-1,6.827425830E-1
5.181138958E0,6.664516068E-1,-1.572702205E-1,-8.007579111E-2,6.894228011E-1
5.191092958E0,7.223492342E-1,-5.658654642E-1,-8.182659365E-2,9.212424932E-1
5.201046958E0,8.228693032E-1,-8.530298263E-1,-1.670830909E-1,1.196950514E0
5.211000958E0,8.939375317E-1,-1.021424375E0,-1.618492116E-1,1.366977407E0
5.220954958E0,9.722820354E-1,-1.051790135E0,-9.692461610E-2,1.435614581E0
5.230908958E0,7.920071143E-1,-9.319403404E-1,1.500208426E-1,1.232190862E0
5.240862958E0,5.898103970E-1,-8.291117907E-1,4.898457404E-2,1.018676668E0
5.250817958E0,6.321442384E-1,-7.674721974E-1,-1.345958511E-1,1.003362325E0
5.260771958E0,6.012902355E-1,-5.802268106E-1,1.653820628E-1,8.518006373E-1
5.270725958E0,3.810437483E-1,-2.886969173E-1,4.809293944E-1,6.781101168E-1
5.280679958E0,1.214829218E-1,5.171043634E-2,7.420496732E-1,7.537040447E-1
5.290633958E0,-2.269368714E-1,2.141367316E-1,1.112487157E0,1.155414453E0
5.300587958E0,-3.922259635E-1,1.462125510E-1,1.373540778E0,1.435908627E0
5.310541958E0,-4.456396937E-2,-7.512561142E-2,1.374831843E0,1.377603862E0
5.320496958E0,5.095813358E-1,-5.422356963E-1,9.433324707E-1,1.201486096E0
5.330450958E0,1.197662963E0,-1.082946439E0,4.428681135E-1,1.674306342E0
5.340404958E0,1.664406427E0,-1.316066741E0,6.575311859E-2,2.122876326E0
5.350358958E0,1.719908783E0,-1.156604399E0,2.195114923E-1,2.084227735E0
5.360312958E0,1.551949267E0,-1.011815645E0,4.223017019E-1,1.900172665E0
5.370266958E0,1.243105769E0,-8.694505620E-1,1.790733182E-1,1.527522008E0
5.380221958E0,8.509622508E-1,-5.447488296E-1,-3.238457000E-1,1.061020300E0
5.390175958E0,1.698037273E-1,-3.046604007E-1,-8.290854782E-1,8.994631709E-1
5.400129958E0,-3.196017909E-1,-1.611305523E-1,-9.191226590E-1,9.863543085E-1
5.410083958E0,-5.245238954E-1,-1.046429408E-1,-7.859055448E-1,9.506434595E-1
5.420037958E0,-4.943247807E-1,-1.126296526E-1,-7.105355197E-1,8.728706389E-1
5.429991958E0,-7.560841602E-1,-2.182175034E-1,-7.607145703E-1,1.094517608E0
5.439946958E0,-1.108564845E0,-2.381839907E-1,-8.568305165E-1,1.421198847E0
5.449900958E0,-1.314938813E0,3.591769159E-2,-9.787145573E-1,1.639584199E0
5.459854958E0,-1.584956800E0,4.862597162E-1,-8.866495621E-1,1.880075534E0
5.469808958E0,-1.863963127E0,1.123306845E0,-5.882293830E-1,2.254371445E0
5.479762958E0,-1.628043762E0,1.805555874E0,-5.138883948E-1,2.484882249E0
5.489716958E0,-9.674721158E-1,2.141405908E0,-7.750285542E-1,2.474326336E0
5.499670958E0,-3.143176621E-1,2.568179560E0,-1.015870104E0,2.779628377E0
5.509625958E0,1.834195536E-1,3.491913334E0,-1.553701678E0,3.826367777E0
5.519579958E0,3.594856489E-1,4.079993539E0,-1.332706747E0,4.307166643E0
5.529533958E0,3.610199583E-1,3.452346395E0,6.350196797E-2,3.471752229E0
5.539487958E0,3.913634992E-1,2.991851850E0,1.411663454E0,3.331236495E0
5.549441958E0,1.321996987E-2,3.121442521E0,1.761493596E0,3.584192777E0
5.559395958E0,-8.427118295E-1,3.402522270E0,1.280663604E0,3.731945912E0
5.569350958E0,-8.660960144E-1,3.523045079E0,8.575812259E-1,3.727923617E0
5.579304958E0,-9.603051835E-1,3.140940646E0,-1.540339328E-2,3.284498661E0
5.589258958E0,-1.098941497E0,2.544411213E0,-1.402952857E0,3.106441301E0
5.599212958E0,-1.075304128E0,1.366252223E0,-1.915936103E0,2.587225397E0
5.609166958E0,-1.405176553E0,1.422615874E-1,-1.586831856E0,2.124333976E0
5.619120958E0,-1.465316336E0,-4.486796612E-1,-9.209680402E-1,1.787917093E0
5.629074958E0,-1.059306146E0,-4.647887403E-1,-4.803400681E-1,1.252551262E0
5.639029958E0,-7.299476910E-1,-7.112605745E-1,1.213126217E-1,1.026368349E0
5.648983958E0,-5.367141706E-1,-5.480484134E-1,8.880300897E-1,1.173463508E0
5.658937958E0,-1.069332367E0,-3.111098796E-1,1.438791026E0,1.819445159E0
5.668891958E0,-8.746762186E-1,1.860303354E-1,1.918400850E0,2.116583945E0
5.678845958E0,-6.013276577E-1,4.374617779E-1,2.282305533E0,2.400392948E0
5.688799958E0,-9.826456404E-1,4.149564296E-1,1.587075685E0,1.912221358E0
5.698754958E0,-3.851215965E-1,6.949801719E-1,5.257699370E-1,9.527592089E-1
5.708708958E0,7.121002346E-1,3.684085000E-1,1.227681398E-2,8.018492920E-1
5.718662958E0,1.119621345E0,-2.706050473E-1,-8.944836617E-2,1.155326819E0
5.728616958E0,9.710137743E-1,-6.056259459E-1,-2.810204002E-1,1.178398490E0
5.738570583E0,5.583225560E-1,-6.732905102E-1,-3.079946293E-1,9.273105625E-1
5.748524583E0,-4.406099188E-1,-6.956485087E-1,-3.725024280E-1,9.037820573E-1
5.758478583E0,-8.748329240E-1,-7.735398531E-1,-5.772388834E-1,1.302651633E0
5.768433583E0,1.240562814E-1,-8.072987527E-1,-8.430503833E-1,1.173820764E0
5.778387583E0,9.869018286E-1,-8.966962481E-1,-9.150777014E-1,1.617221871E0
5.788341583E0,8.256964320E-1,-1.154060860E0,-3.564696550E-1,1.463113694E0
5.798295583E0,1.123484015E-2,-1.208521242E0,1.740137225E-1,1.221036687E0
5.808249583E0,-4.411005002E-1,-1.128859361E0,7.008718264E-1,1.400040865E0
5.818203583E0,-1.513212048E0,-9.923578656E-1,8.010790694E-1,1.978967537E0
5.828158583E0,-1.323362896E0,-1.474702871E0,7.791701370E-1,2.129118131E0
5.838112583E0,3.780102128E-1,-2.046717852E0,9.753620562E-1,2.298537976E0
5.848066583E0,1.009689013E0,-2.241600872E0,1.149768712E0,2.714077092E0
5.858020583E0,7.528564972E-1,-2.044787101E0,1.265774254E0,2.519946757E0
5.867974583E0,3.047557104E-1,-1.873629159E0,1.135391870E0,2.211894429E0
5.877928583E0,1.038553208E-1,-1.712209169E0,1.103225167E0,2.039497962E0
5.887882583E0,-2.011407101E-1,-1.590022243E0,1.376447721E0,2.112637367E0
5.897837583E0,4.199318254E-1,-1.214944409E0,1.825459211E0,2.232651784E0
5.907791583E0,1.326043260E0,-7.488301045E-1,1.551380041E0,2.173917497E0
5.917745583E0,1.013330659E0,-7.753080511E-1,1.259772380E0,1.793033197E0
5.927699583E0,1.221120822E0,-9.702232307E-1,1.594256796E0,2.230274403E0
5.937653583E0,1.095250150E0,-9.200465190E-1,1.783867820E0,2.286535127E0
5.947607583E0,4.037379616E-1,-9.492223710E-1,1.836769188E0,2.106596426E0
5.957562583E0,5.278223097E-1,-4.979173100E-1,2.735504653E0,2.830106667E0
5.967516583E0,4.327875137E-1,5.599176764E-2,2.372412441E0,2.412214937E0
5.977470583E0,8.344035208E-1,-1.259174502E-1,1.957348277E0,2.131501048E0
5.987424583E0,4.993223959E-1,-6.195317942E-1,1.961480650E0,2.116730696E0
5.997378583E0,5.503738511E-1,-1.090421519E0,2.011408271E0,2.353230481E0
6.007332583E0,5.775797760E-1,-1.080182460E0,2.139950536E0,2.465721160E0
6.017286583E0,6.620527464E-1,-9.601467240E-1,2.175647203E0,2.468529182E0
6.027241583E0,1.716426766E-1,-1.696916361E0,2.482194500E0,3.011689871E0
6.037195583E0,-7.338974851E-1,-2.216135078E0,2.272037383E0,3.257608643E0
6.047149583E0,-1.080614569E0,-2.602417347E0,1.929274917E0,3.415026442E0
6.057103583E0,-1.665692815E0,-3.196977437E0,1.532537242E0,3.917124926E0
6.067057583E0,-1.530742586E0,-3.728553659E0,1.430469269E0,4.276859547E0
6.077011583E0,-7.551737487E-1,-3.841682664E0,9.153188990E-1,4.020773777E0
6.086965583E0,1.185645765E-1,-3.464224429E0,-3.855829418E-2,3.466467250E0
6.096920583E0,1.138568078E0,-2.668140635E0,-1.587495661E-1,2.905256123E0
6.106874583E0,1.512468283E0,-2.300195235E0,4.198053794E-1,2.784725297E0
6.116828583E0,2.248409954E0,-2.208966392E0,9.965017873E-1,3.305736779E0
6.126782583E0,2.542852346E0,-2.138748348E0,2.306589750E0,4.044836069E0
6.136736583E0,2.024648121E0,-2.018784533E0,3.062293549E0,4.189550428E0
6.146690583E0,1.461163643E0,-1.849461447E0,3.226115282E0,3.995413201E0
6.156645583E0,7.788397694E-1,-1.368212210E0,3.387019547E0,3.735036473E0
6.166599583E0,-2.735590607E-1,-5.905886614E-1,3.272702973E0,3.336797008E0
6.176553583E0,-1.047117040E0,4.483510476E-1,2.853729506E0,3.072660875E0
6.186507583E0,-6.897024751E-1,9.396007776E-1,2.196214784E0,2.486342394E0
6.196461583E0,-4.966905642E-1,5.287145948E-1,1.537871219E0,1.700378936E0
6.206415583E0,-3.047744215E-1,1.149299473E-1,9.956121334E-1,1.047539909E0
6.216369583E0,3.084920812E-1,1.922418326E-1,5.658105004E-1,6.725071068E-1
6.226324583E0,5.910131693E-1,3.778406435E-1,-1.194004360E-1,7.115592613E-1
6.236278583E0,-9.379927933E-2,-1.039547235E-1,-1.608348440E0,1.614431663E0
6.246232583E0,-7.501585919E-1,-4.094337344E-1,-2.971168494E0,3.091636478E0
6.256186583E0,-6.971272695E-1,-4.553402245E-2,-3.417208137E0,3.487889222E0
6.266140583E0,-2.069306231E-1,5.257904023E-1,-3.717244560E0,3.759944540E0
6.276094583E0,-2.583884597E-1,9.801868862E-1,-3.673379917E0,3.810675917E0
6.286049583E0,-6.352707446E-1,1.506553824E0,-2.984653342E0,3.403149852E0
6.296003583E0,-8.598798394E-1,1.909887743E0,-1.980322133E0,2.882488557E0
6.305957583E0,-1.327182882E0,1.874391051E0,-1.651474140E0,2.828802406E0
6.315911583E0,-1.400309331E0,1.712998543E0,-2.153740609E0,3.087689888E0
6.325865583E0,-1.245329465E0,1.084211776E0,-2.288932328E0,2.822334469E0
6.335819583E0,-1.164451947E0,3.303442955E-1,-1.896047968E0,2.249460733E0
6.345773583E0,-5.042346418E-1,-5.513164222E-2,-1.354604570E0,1.446459682E0
6.355728583E0,6.981873697E-1,-2.167679787E-1,-8.177494812E-1,1.096890229E0
6.365682583E0,1.946310634E0,-3.822365803E-1,-3.130230886E-1,2.008037186E0
6.375636583E0,2.100860145E0,-7.497428548E-1,-9.010442376E-2,2.232453024E0
6.385590583E0,1.522399778E0,-1.146792771E0,-6.584865296E-1,2.016541409E0
6.395544583E0,1.100177014E0,-1.145687063E0,-1.649201328E0,2.289727784E0
6.405498583E0,1.515830432E0,-6.424669129E-1,-1.622315245E0,2.311365914E0
6.415453583E0,2.272141464E0,-2.907522136E-1,-7.306850249E-1,2.404384388E0
6.425407583E0,2.609233446E0,-2.384933084E-1,4.414098179E-1,2.657032341E0
6.435361583E0,2.574216810E0,-3.615994173E-1,1.457620230E0,2.980268958E0
6.445315583E0,2.737903181E0,-5.675254887E-1,2.545839103E0,3.781467407E0
6.455269583E0,2.501322497E0,-1.152717170E0,3.818560435E0,4.708160458E0
6.465223583E0,1.384943433E0,-1.715460221E0,4.129197274E0,4.680933904E0
6.475177583E0,3.774710995E-1,-1.964734041E0,3.646154112E0,4.158978731E0
6.485132583E0,2.110657740E-1,-2.006331718E0,2.848427251E0,3.490480415E0
6.495086583E0,2.963228559E-1,-1.786650072E0,1.973390259E0,2.678468747E0
6.505040583E0,4.497058475E-1,-1.576419865E0,1.403077403E0,2.157767628E0
6.514994583E0,1.163955519E0,-1.686014228E0,9.072288376E-1,2.240647360E0
6.524948583E0,1.129428880E0,-1.720978823E0,6.006558126E-1,2.144333255E0
6.534902583E0,5.713554150E-1,-1.375035326E0,3.109806561E-1,1.521143690E0
6.544857583E0,8.931738853E-2,-7.483722675E-1,3.040961444E-1,8.127195775E-1
6.554811583E0,-1.832458913E-2,-1.640611768E-2,6.063895923E-1,6.068882013E-1
6.564765583E0,1.110175753E-1,3.162565988E-1,4.206241357E-1,5.378362222E-1
6.574719583E0,1.141908592E-1,2.613892508E-1,3.141592026E-1,4.243346525E-1
6.584673583E0,2.627300173E-1,1.275628567E-1,4.236477309E-1,5.145646163E-1
6.594627583E0,5.041147739E-1,-7.780480564E-2,6.110357898E-1,7.959585602E-1
6.604582583E0,7.845203394E-1,-2.596701694E-1,8.647143173E-1,1.196090135E0
6.614536583E0,1.058658859E0,-3.161566114E-1,1.071227449E0,1.538909299E0
6.624490583E0,1.274253886E0,-3.483852947E-1,1.250008407E0,1.818685321E0
6.634444583E0,1.391045587E0,-3.342104745E-1,1.359396948E0,1.973490443E0
6.644398583E0,1.324891943E0,-3.629735130E-1,1.375773829E0,1.944181592E0
6.654352583E0,1.181886005E0,-4.678602827E-1,1.311277871E0,1.826252291E0
6.664306583E0,1.022660476E0,-6.349976796E-1,1.218211248E0,1.712628140E0
6.674261583E0,9.456228250E-1,-8.398642355E-1,1.142357658E0,1.704275647E0
6.684215583E0,1.089065550E0,-1.003436000E0,1.041150541E0,1.810232590E0
6.694169583E0,1.488050895E0,-1.033302408E0,9.220486057E-1,2.032777155E0
6.704123583E0,2.087137315E0,-8.975318152E-1,8.471446037E-1,2.424739060E0
6.714077583E0,2.733182139E0,-6.788102818E-1,8.451109421E-1,2.940285787E0
6.724031583E0,3.298404409E0,-4.406637132E-1,9.798448241E-1,3.468969881E0
6.733986417E0,3.650181089E0,-2.349358624E-1,1.184622502E0,3.844781829E0
6.743940417E0,3.637993153E0,-4.995568693E-2,1.412220694E0,3.902801178E0
6.753894417E0,3.220199654E0,1.368634379E-1,1.461757135E0,3.539089055E0
6.763848417E0,2.525611246E0,3.199947238E-1,1.297997675E0,2.857605073E0
6.773802417E0,1.813465987E0,4.778917658E-1,1.168403496E0,2.209571487E0
6.783756417E0,1.317785237E0,5.336245018E-1,1.011801027E0,1.745008412E0
6.793710417E0,1.138044167E0,4.809697402E-1,6.619796562E-1,1.401675241E0
6.803665417E0,1.222048191E0,4.241599470E-1,1.546670401E-1,1.302779849E0
6.813619417E0,1.260487202E0,2.622809511E-1,-2.650484383E-1,1.314484674E0
6.823573417E0,1.040613182E0,-6.607353687E-4,-6.325102741E-1,1.217762488E0
6.833527417E0,4.842324865E-1,-4.066136223E-1,-8.269132376E-1,1.040961691E0
6.843481417E0,-3.780564058E-1,-9.034375030E-1,-9.408947664E-1,1.358090177E0
6.853435417E0,-1.301360409E0,-1.455860218E0,-1.063642953E0,2.223601632E0
6.863390417E0,-2.132610526E0,-1.859774766E0,-1.164271268E0,3.059790421E0
6.873344417E0,-2.901188432E0,-2.097219669E0,-1.276026177E0,3.800456218E0
6.883298417E0,-3.580013916E0,-2.259652396E0,-1.250166281E0,4.414232020E0
6.893252417E0,-3.915765132E0,-2.102394454E0,-9.163119024E-1,4.537940779E0
6.903206417E0,-3.673526682E0,-1.220239647E0,-1.571464057E-1,3.874077706E0
6.913160417E0,-2.640165217E0,6.655148828E-1,1.081511971E0,2.929684381E0
6.923114417E0,-7.162195981E-1,3.410755150E0,2.313586674E0,4.183169194E0
6.933069417E0,1.036081590E0,5.871740044E0,3.383309489E0,6.855478051E0
6.943023417E0,1.587692712E0,6.988006842E0,4.242812183E0,8.327932696E0
6.952977417E0,1.489629643E0,6.161218734E0,4.402076889E0,7.717376089E0
6.962931417E0,1.200328124E0,3.868578102E0,3.547335582E0,5.384261683E0
6.972885417E0,1.371663821E0,1.670826085E0,2.276885164E0,3.139638115E0
6.982839417E0,1.718165143E0,8.133944750E-2,1.513599865E0,2.291220661E0
6.992794417E0,2.160079576E0,-1.066122830E0,1.188501545E0,2.686093369E0
7.002748417E0,2.776658526E0,-1.160161845E0,9.854252605E-1,3.166523491E0
7.012702417E0,2.793002079E0,-1.011836110E0,9.369290386E-1,3.114885062E0
7.022656417E0,1.729080725E0,-1.096234236E0,1.061589484E0,2.306170394E0
7.032610417E0,2.103886664E-1,-1.340547279E0,9.707418787E-1,1.668433454E0
7.042564417E0,-9.202090716E-1,-1.459438714E0,7.988968885E-1,1.901310689E0
7.052518417E0,-1.722626569E0,-1.388857559E0,6.871887571E-1,2.317023091E0
7.062473417E0,-2.313371351E0,-1.333499629E0,4.769728759E-1,2.712454865E0
7.072427417E0,-2.766740479E0,-1.445422938E0,1.557271403E-1,3.125436176E0
7.082381417E0,-3.168201535E0,-1.583887344E0,-1.695926428E-1,3.546119252E0
7.092335417E0,-3.452126539E0,-1.609300513E0,-4.422073781E-1,3.834393453E0
7.102289417E0,-3.467919284E0,-1.545182869E0,-7.312370020E-1,3.866362866E0
7.112243417E0,-3.474693283E0,-1.295274627E0,-1.014564129E0,3.844550708E0
7.122198417E0,-3.402333405E0,-9.422133136E-1,-1.107912880E0,3.700149926E0
7.132152417E0,-3.274230850E0,-5.308266091E-1,-1.023402195E0,3.471270172E0
7.142106417E0,-3.107769392E0,-1.929072458E-1,-7.995611322E-1,3.214769323E0
7.152060417E0,-2.863061078E0,2.543071032E-2,-5.120479837E-1,2.908600796E0
7.162014417E0,-2.343228403E0,-3.264383554E-2,-1.662664542E-1,2.349346612E0
7.171968417E0,-1.543647975E0,-5.516614079E-1,1.379773325E-1,1.645058396E0
7.181922417E0,-7.197437149E-1,-1.364878712E0,4.318132214E-1,1.602306953E0
7.191877417E0,-9.197085500E-3,-1.942311139E0,8.660325721E-1,2.126656898E0
7.201831417E0,5.049339688E-1,-2.155261470E0,1.434356498E0,2.637705230E0
7.211785417E0,8.245924777E-1,-2.091109913E0,1.851557966E0,2.912208839E0
7.221739417E0,1.158700626E0,-1.825214798E0,2.237570240E0,3.111385025E0
7.231693417E0,1.573463513E0,-1.727627692E0,2.758501752E0,3.615220157E0
7.241647417E0,2.484415272E0,-2.198886377E0,2.902628016E0,4.408250214E0
7.251602417E0,3.460719023E0,-2.328593407E0,3.163826063E0,5.235333683E0
7.261556417E0,3.146286755E0,-8.015170258E-1,3.493273396E0,4.769120349E0
7.271510417E0,2.978972772E0,-1.252473593E-3,2.437540776E0,3.849140863E0
7.281464417E0,2.638083608E0,3.043867511E-1,1.953086241E0,3.296465119E0
7.291418417E0,3.077863807E0,2.107090938E-1,1.716423696E0,3.530404260E0
7.301372417E0,3.391720709E0,2.193214577E-1,2.257568448E0,4.080255699E0
7.311326417E0,2.790916377E0,8.474790645E-1,3.017767879E0,4.196946266E0
7.321281417E0,1.374098017E0,2.422301470E0,3.859369030E0,4.759245642E0
7.331235417E0,2.966122931E-1,3.969758322E0,3.617705653E0,5.379103474E0
7.341189417E0,4.488907456E-2,5.050845346E0,1.778041801E0,5.354856336E0
7.351143417E0,6.767245799E-1,5.586492400E0,-3.778967768E-1,5.640005271E0
7.361097417E0,4.596268183E-1,5.035898693E0,-2.020394272E0,5.445505071E0
7.371051417E0,-1.019836271E0,3.598114557E0,-2.557741111E0,4.530842524E0
7.381006417E0,-2.697970791E0,1.822060810E0,-2.635048319E0,4.188368611E0
7.390960417E0,-3.547785233E0,3.146673256E-1,-2.365833154E0,4.275858054E0
7.400914417E0,-3.282785327E0,-6.374500018E-1,-1.560142532E0,3.690130991E0
7.410868417E0,-2.569816781E0,-1.374998488E0,-1.219340199E0,3.159330570E0
7.420822417E0,-1.723542243E0,-1.496559178E0,-1.163428831E0,2.562001928E0
7.430776417E0,-8.647435534E-1,-1.318757629E0,-1.030154998E0,1.883646044E0
7.440730417E0,-1.383182251E-1,-1.163805245E0,-9.145613922E-1,1.486605906E0
7.450685417E0,2.038643432E-1,-1.205697037E0,-9.770961942E-1,1.565242150E0
7.460639417E0,4.949463397E-1,-1.355542463E0,-1.024888265E0,1.769989606E0
7.470593417E0,1.112491835E0,-1.172110046E0,-9.753581093E-1,1.887539002E0
7.480547417E0,1.655460187E0,-5.642194730E-1,-1.147573375E0,2.091845285E0
7.490501417E0,1.629892652E0,1.448285151E-1,-1.389185003E0,2.146476259E0
7.500455417E0,1.233416932E0,6.456483829E-1,-1.529806446E0,2.068450368E0
7.510410417E0,6.037174147E-1,9.058915794E-1,-1.450469670E0,1.813553565E0
7.520364417E0,-3.686570066E-1,8.569521385E-1,-1.179452979E0,1.503789974E0
7.530318417E0,-1.310686718E0,7.185754412E-1,-9.115440828E-1,1.750760678E0
7.540272417E0,-2.001293757E0,5.358978993E-1,-6.876167732E-1,2.182929245E0
7.550226417E0,-2.331372297E0,2.273362362E-1,-6.623065887E-1,2.434261401E0
7.560180417E0,-2.288079512E0,-1.660012829E-1,-8.187125176E-1,2.435806738E0
7.570134417E0,-1.943060167E0,-4.681070352E-1,-9.728071153E-1,2.222827184E0
7.580089417E0,-1.199016885E0,-5.884637833E-1,-9.291102880E-1,1.627014764E0
7.590043417E0,-5.414273188E-1,-7.344026846E-1,-8.031483990E-1,1.215540290E0
7.599997417E0,-2.955504388E-2,-1.012794469E0,-5.922796762E-1,1.173635954E0
7.609951417E0,3.480186743E-1,-1.186501213E0,-3.762443537E-1,1.292463516E0
7.619905417E0,3.889494762E-1,-1.349181277E0,-1.913339062E-1,1.417102846E0
7.629859417E0,3.716867414E-1,-1.576100022E0,-1.606289343E-1,1.627281158E0
7.639814417E0,4.099298707E-1,-1.743439733E0,-2.310398626E-1,1.805825024E0
7.649768417E0,5.161056590E-1,-1.767205741E0,-4.067346597E-1,1.885421509E0
7.659722417E0,5.161024430E-1,-1.597247647E0,-5.614725242E-1,1.769975472E0
7.669676417E0,3.800073293E-1,-1.265094223E0,-6.512429988E-1,1.472747910E0
7.679630417E0,5.070149928E-2,-9.037766415E-1,-7.391459459E-1,1.168640060E0
7.689584417E0,-2.060073477E-1,-7.580002928E-1,-5.606871700E-1,9.650769782E-1
7.699539417E0,-1.377896369E-1,-7.556883037E-1,-3.007070982E-1,8.249094225E-1
7.709493417E0,2.554783005E-1,-7.199887133E-1,1.692827769E-1,7.825021200E-1
7.719447417E0,8.303838524E-1,-6.631537771E-1,8.743359107E-1,1.376144454E0
7.729401417E0,1.506462023E0,-5.620618504E-1,1.549227389E0,2.232811423E0
7.739355292E0,1.993699393E0,-5.898051345E-1,1.958985059E0,2.856629102E0
7.749309292E0,2.209654317E0,-6.616136205E-1,2.062786585E0,3.094413236E0
7.759263292E0,2.112051423E0,-7.373467577E-1,1.856185160E0,2.906865117E0
7.769218292E0,1.868447064E0,-7.725598598E-1,1.272823073E0,2.389146656E0
7.779172292E0,1.618210792E0,-6.471996492E-1,6.315975237E-1,1.853749979E0
7.789126292E0,1.441352399E0,-3.460686278E-1,2.706442237E-2,1.482562888E0
7.799080292E0,1.298847860E0,7.004262686E-2,-4.089782363E-1,1.363515651E0
7.809034292E0,3.446579578E0,1.188358873E-1,-5.198439009E0,6.238333182E0
7.818988292E0,1.663692482E0,1.680062932E-1,-2.280257399E0,2.827662037E0
7.828942292E0,5.461784738E-1,1.498682887E0,6.141406614E-1,1.709248394E0
7.838897292E0,6.589519680E-1,1.910714539E0,1.996510150E0,2.840968237E0
7.848851292E0,3.933091602E-1,1.566699454E0,5.116720077E0,5.365637299E0
7.858805292E0,9.604943410E-1,7.956177700E-1,3.855896076E0,4.052590722E0
7.868759292E0,1.141150208E0,1.358395904E-1,1.724628071E0,2.072442562E0
7.878713292E0,1.269709723E0,-3.468480617E-1,1.121525564E-1,1.321001345E0
7.888667292E0,1.600985187E0,-4.541432995E-1,-8.606779844E-1,1.873543781E0
7.898622292E0,2.016171705E0,-1.368230921E-1,-1.208246423E0,2.354469860E0
7.908576292E0,2.719884693E0,2.888495296E-1,-1.518893203E0,3.128616844E0
7.918530292E0,3.169272160E0,5.962335634E-1,-1.741037112E0,3.664831607E0
7.928484292E0,2.852885461E0,7.169352973E-1,-1.864292910E0,3.482605307E0
7.938438292E0,1.968744646E0,6.341656208E-1,-1.749606791E0,2.709104177E0
7.948392292E0,7.439318919E-1,3.144287592E-1,-1.504617226E0,1.707680620E0
7.958346292E0,-5.790728626E-1,-4.758230209E-2,-1.231171601E0,1.361386414E0
7.968301292E0,-1.755710992E0,-2.291576439E-1,-1.015454952E0,2.041122993E0
7.978255292E0,-2.689089455E0,-1.506383085E-1,-6.360683048E-1,2.767395325E0
7.988209292E0,-3.328807007E0,3.027319890E-1,-9.275496662E-2,3.343831071E0
7.998163292E0,-3.567029882E0,1.149422264E0,3.536922276E-1,3.764302314E0
8.008117292E0,-3.189091590E0,2.123708725E0,4.762013358E-1,3.860985836E0
8.018071292E0,-2.287637170E0,3.206641715E0,5.118215503E-1,3.972127416E0
8.028026292E0,-1.539206138E0,3.904434398E0,6.277703749E-1,4.243566795E0
8.037980292E0,-7.302827364E-1,4.458225946E0,6.260800910E-1,4.560818758E0
8.047934292E0,4.524522847E-1,4.570403025E0,4.047211710E-1,4.610541845E0
8.057888292E0,1.571827169E0,3.699073752E0,8.498489410E-2,4.020075833E0
8.067842292E0,2.069647416E0,1.878365988E0,-2.876198602E-1,2.809701834E0
8.077796292E0,2.115666172E0,-2.239278942E-1,-3.394028020E-1,2.154386529E0
8.087751292E0,2.402510984E0,-1.559452415E0,-2.538466349E-2,2.864366464E0
8.097705292E0,2.527151402E0,-1.835407664E0,4.292802076E-1,3.152696782E0
8.107659292E0,1.991199124E0,-1.451941999E0,9.474851632E-1,2.640215456E0
8.117613292E0,1.206725562E0,-1.208001425E0,1.433129168E0,2.229195648E0
8.127567292E0,2.402503967E-1,-1.302900565E0,1.637477660E0,2.106324577E0
8.137521292E0,-7.677838540E-1,-1.505000219E0,1.366717515E0,2.173116304E0
8.147475292E0,-1.379097387E0,-1.391308712E0,7.640565464E-1,2.102720129E0
8.157430292E0,-1.834493744E0,-1.131060838E0,2.198056072E-1,2.166328789E0
8.167384292E0,-2.248885918E0,-9.432254666E-1,-1.358071384E-1,2.442458952E0
8.177338292E0,-2.591867216E0,-7.997038043E-1,-4.422842690E-1,2.748257123E0
8.187292292E0,-2.837278950E0,-8.542717749E-1,-7.778244004E-1,3.063485417E0
8.197246292E0,-3.000668281E0,-9.328291172E-1,-1.052232477E0,3.313815547E0
8.207200292E0,-3.084267093E0,-9.788648307E-1,-1.288580442E0,3.483004366E0
8.217155292E0,-3.103894442E0,-1.030550709E0,-1.480329062E0,3.589926127E0
8.227109292E0,-2.887919345E0,-1.012374639E0,-1.437915114E0,3.381209906E0
8.237063292E0,-2.543433559E0,-1.130839228E0,-1.285170053E0,3.065862635E0
8.247017292E0,-2.137888808E0,-1.544968277E0,-1.035472310E0,2.833672253E0
8.256971292E0,-1.663142259E0,-2.024118948E0,-7.239984414E-1,2.717953906E0
8.266925292E0,-1.077791533E0,-2.306944091E0,-6.143178320E-1,2.619353361E0
8.276879292E0,-5.309961784E-1,-2.551872261E0,-5.436782044E-1,2.662629333E0
8.286834292E0,-2.754488808E-1,-2.811786844E0,-4.098754916E-1,2.854823157E0
8.296788292E0,-2.098220712E-1,-2.811446536E0,-1.218454492E-1,2.821897099E0
8.306742292E0,-7.886724472E-3,-2.295575935E0,4.663908774E-1,2.342488319E0
8.316696292E0,2.317736882E-1,-1.773791460E0,1.360053005E0,2.247175864E0
8.326650292E0,8.522299272E-1,-1.189739985E0,2.040750037E0,2.511262192E0
8.336604292E0,1.819040138E0,-2.350826275E-1,2.106819481E0,2.793359839E0
8.346559292E0,2.480688842E0,8.078442979E-1,2.204479677E0,3.415576113E0
8.356513292E0,3.583397115E0,1.405656025E0,2.132415668E0,4.400431834E0
8.366467292E0,4.973859735E0,1.745056488E0,1.657158657E0,5.525457232E0
8.376421292E0,5.630052402E0,1.596715550E0,1.158309593E0,5.965624168E0
8.386375292E0,4.853170280E0,6.262175006E-1,1.220094198E0,5.043217225E0
8.396329292E0,3.639351461E0,-4.092284971E-1,1.926206152E0,4.137948424E0
8.406283292E0,2.738736409E0,-8.472007370E-1,2.789225362E0,3.999775534E0
8.416238292E0,1.968856328E0,-6.859123099E-1,3.221880144E0,3.837627210E0
8.426192292E0,1.506266726E0,6.502530652E-1,2.821958660E0,3.264218004E0
8.436146292E0,1.689602664E0,3.419284483E0,1.710642700E0,4.180019376E0
8.446100292E0,2.360946051E0,6.121929538E0,1.082011177E-1,6.562301045E0
8.456054292E0,2.873584896E0,7.151914821E0,-1.326381814E0,7.820911998E0
8.466008292E0,2.151615146E0,6.195192811E0,-2.092200565E0,6.883833591E0
8.475963292E0,3.705064809E-1,3.748987924E0,-2.341763676E0,4.435768549E0
8.485917292E0,-1.302785960E0,1.804178855E0,-2.552903125E0,3.386683771E0
8.495871292E0,-2.334481553E0,7.056133336E-1,-2.682715990E0,3.625556424E0
8.505825292E0,-2.550557222E0,2.505315560E-1,-2.788607896E0,3.787405735E0
8.515779292E0,-2.247643384E0,4.526271164E-2,-2.779088044E0,3.574532117E0
8.525733292E0,-1.818557158E0,-2.733292651E-1,-2.373321683E0,3.002418165E0
8.535687292E0,-1.491234704E0,-7.697514421E-1,-1.920847618E0,2.550677125E0
8.545642292E0,-1.297506801E0,-1.273145254E0,-1.465224388E0,2.334803042E0
8.555596292E0,-1.282514540E0,-1.653971486E0,-1.057970642E0,2.345158225E0
8.565550292E0,-1.793218834E0,-2.080280870E0,-9.341958307E-1,2.901021222E0
8.575504292E0,-2.674112689E0,-2.615759524E0,-1.093412370E0,3.897258930E0
8.585458292E0,-3.329560421E0,-2.775499608E0,-1.126329709E0,4.478614661E0
8.595412292E0,-3.708757326E0,-2.416461856E0,-8.983450167E-1,4.516767934E0
8.605367292E0,-3.472723356E0,-1.585456152E0,-6.146693958E-1,3.866690728E0
8.615321292E0,-2.778611496E0,-6.658125061E-1,-2.423320055E-1,2.867527322E0
8.625275292E0,-2.138827578E0,-1.770478427E-2,-2.023136616E-4,2.138900865E0
8.635229292E0,-1.714304811E0,3.610357457E-1,-2.347890973E-2,1.752067081E0
8.645183292E0,-1.425839444E0,4.446766573E-1,-3.222036557E-1,1.527930183E0
8.655137292E0,-1.211975485E0,4.353088331E-1,-6.726174957E-1,1.452856721E0
8.665091292E0,-1.119362021E0,3.431649005E-1,-9.573318744E-1,1.512355051E0
8.675046292E0,-1.156924242E0,3.403722703E-2,-1.015716176E0,1.539906356E0
8.685000292E0,-1.119274897E0,-2.502362716E-1,-8.215548491E-1,1.410796533E0
8.694954292E0,-8.248901010E-1,-3.118314260E-1,-6.770824295E-1,1.111810745E0
8.704908292E0,-5.540885872E-1,-2.891097307E-1,-7.039825451E-1,9.413766636E-1
8.714862292E0,-2.358983141E-1,-3.412195319E-1,-8.251227470E-1,9.235292801E-1
8.724816292E0,-2.069914341E-4,-4.619230199E-1,-1.172212957E0,1.259942909E0
8.734771542E0,3.613550037E-2,-6.750411665E-1,-1.407580343E0,1.561495685E0
8.744725542E0,1.388874516E-1,-8.227009034E-1,-1.233250287E0,1.488970372E0
8.754679542E0,2.939050323E-1,-7.433395690E-1,-9.170901668E-1,1.216547680E0
8.764633542E0,7.418777651E-1,-3.698451608E-1,-6.702441108E-1,1.066018400E0
8.774587542E0,1.264824959E0,5.371837020E-3,-5.437401849E-1,1.376758665E0
8.784541542E0,2.215699753E0,4.594829768E-1,-2.587883361E-1,2.277591141E0
8.794495542E0,2.302458107E0,4.918905848E-1,-4.629474521E-2,2.354870036E0
8.804450542E0,9.620257267E-1,5.012525618E-2,-1.193890339E-1,9.707006653E-1
8.814404542E0,-1.602356359E-1,-4.331453633E-1,-2.276198262E-1,5.148797433E-1
8.824358542E0,-5.039829192E-1,-6.694921589E-1,-1.613059688E-1,8.533687065E-1
8.834312542E0,-1.045929471E-1,-6.507459855E-1,1.217969173E-1,6.702570487E-1
8.844266542E0,6.863461733E-1,-5.800970024E-1,7.982496017E-1,1.201992524E0
8.854220542E0,1.211911750E0,-4.157171524E-1,1.575091377E0,2.030385108E0
8.864175542E0,1.353167324E0,-1.894094414E-1,1.943574722E0,2.375798906E0
8.874129542E0,1.368026561E0,-5.966791213E-2,1.829337670E0,2.285067448E0
8.884083542E0,1.349798451E0,-5.417152941E-2,1.313643070E0,1.884289927E0
8.894037542E0,1.490692959E0,-1.372253805E-1,6.176986921E-1,1.619428287E0
8.903991542E0,1.873515284E0,-2.103956831E-1,-4.390909036E-2,1.885803243E0
8.913945542E0,2.125252682E0,-3.909501010E-1,-2.750869381E-1,2.178351158E0
8.923899542E0,1.976650520E0,-6.276541615E-1,-1.309121418E-1,2.078036336E0
8.933854542E0,1.733384130E0,-8.221641290E-1,-1.110164058E-1,1.921691713E0
8.943808542E0,1.599068178E0,-9.488937575E-1,-2.085175574E-1,1.871068671E0
8.953762542E0,1.673397252E0,-1.030969369E0,-3.211080337E-1,1.991548788E0
8.963716542E0,1.903476125E0,-1.083684357E0,-4.119375122E-1,2.228740823E0
8.973670542E0,2.112655587E0,-1.167445137E0,-4.669539642E-1,2.458513328E0
8.983624542E0,2.278520191E0,-1.127501637E0,-4.677684814E-1,2.584902620E0
8.993579542E0,2.412359449E0,-1.100483408E0,-6.425435114E-1,2.728260253E0
9.003533542E0,2.663066714E0,-9.837589502E-1,-9.096104085E-1,2.981123461E0
9.013487542E0,2.955344759E0,-6.624246293E-1,-9.822819436E-1,3.183982859E0
9.023441542E0,3.151132343E0,-4.218532205E-2,-8.817881870E-1,3.272455508E0
9.033395542E0,2.880462391E0,5.355295247E-1,-9.894623244E-1,3.092392464E0
9.043349542E0,2.500269705E0,6.954771852E-1,-1.374080476E0,2.936517371E0
9.053303542E0,1.746156934E0,5.365200430E-1,-1.551877347E0,2.396923256E0
9.063258542E0,6.019205654E-1,2.123819822E-1,-1.367718705E0,1.509327310E0
9.073212542E0,-6.477627361E-1,-3.787533939E-2,-7.921632349E-1,1.023989109E0
9.083166542E0,-1.761225062E0,6.862526178E-2,1.129360102E-1,1.766176008E0
9.093120542E0,-2.457411076E0,4.506571895E-1,1.305737634E0,2.819026759E0
9.103074542E0,-2.585233842E0,1.149595342E0,2.079934714E0,3.511571142E0
9.113028542E0,-2.464390605E0,1.828086950E0,1.919906947E0,3.619553237E0
9.122983542E0,-2.397395255E0,2.477219689E0,1.408072094E0,3.723813693E0
9.132937542E0,-1.897203817E0,3.134467778E0,1.110489017E0,3.828505770E0
9.142891542E0,-1.244251238E0,3.904089997E0,8.723776051E-1,4.189405988E0
9.152845542E0,-7.393400735E-1,4.381452590E0,8.684039104E-1,4.527457994E0
9.162799542E0,-3.477996960E-1,4.422458528E0,6.707767191E-1,4.486540479E0
9.172753542E0,6.247983813E-2,3.775057150E0,7.206044251E-1,3.843726181E0
9.182707542E0,8.482102588E-1,2.828038595E0,6.368874997E-1,3.020411996E0
9.192662542E0,1.505882564E0,1.668725765E0,2.904463311E-1,2.266426051E0
9.202616542E0,1.926506407E0,4.150482309E-1,-5.675556019E-2,1.971525593E0
9.212570542E0,2.334635628E0,-5.724617082E-1,-3.396005841E-1,2.427666468E0
9.222524542E0,2.653947981E0,-1.209062110E0,-5.919077933E-1,2.975840370E0
9.232478542E0,2.689345563E0,-1.468577912E0,-7.698091833E-1,3.159415582E0
9.242432542E0,2.138691630E0,-1.375875571E0,-8.465649985E-1,2.680243976E0
9.252387542E0,8.467078167E-1,-1.233390620E0,-9.703033376E-1,1.783158746E0
9.262341542E0,-7.948930076E-1,-1.406999715E0,-1.075683612E0,1.941287801E0
9.272295542E0,-2.055106560E0,-1.664985301E0,-1.117784807E0,2.871425065E0
9.282249542E0,-2.853641798E0,-1.698560014E0,-9.659127364E-1,3.458520644E0
9.292203542E0,-3.479817199E0,-1.803455554E0,-6.422453034E-1,3.971656921E0
9.302157542E0,-3.740726685E0,-1.805446531E0,-2.070048827E-1,4.158788806E0
9.312111542E0,-3.769874471E0,-1.594671949E0,2.677709019E-1,4.102027962E0
9.322066542E0,-3.944101909E0,-1.418045690E0,6.678865135E-1,4.244156670E0
9.332020542E0,-4.164442536E0,-1.208907158E0,8.874178863E-1,4.426234140E0
9.341974542E0,-4.193877712E0,-1.047520498E0,8.608142245E-1,4.407596918E0
9.351928542E0,-3.789077896E0,-1.095493394E0,7.266444527E-1,4.010639505E0
9.361882542E0,-3.023857169E0,-1.422345148E0,6.356806344E-1,3.401597826E0
9.371836542E0,-2.061078321E0,-1.785497586E0,5.212630494E-1,2.776285403E0
9.381791542E0,-1.292975501E0,-1.904874340E0,2.342679642E-1,2.314133397E0
9.391745542E0,-7.154167753E-1,-1.768524873E0,-7.885145724E-2,1.909376584E0
9.401699542E0,-3.103997353E-1,-1.447885786E0,-3.328221993E-1,1.517725884E0
9.411653542E0,-1.760456300E-1,-1.015660189E0,-3.991765487E-1,1.105395676E0
9.421607542E0,-3.700556606E-2,-4.546742266E-1,-2.552834420E-1,5.227501316E-1
9.431561542E0,4.200610489E-2,-5.541464746E-2,-3.753737032E-2,7.902120077E-2
9.441515542E0,4.996869698E-1,2.162908459E-1,5.106285721E-1,7.464652279E-1
9.451470542E0,1.258813729E0,5.684943724E-1,1.159644293E0,1.803489047E0
9.461424542E0,1.624880711E0,6.036542648E-1,1.444386081E0,2.256299392E0
9.471378542E0,1.538486638E0,4.390878886E-1,1.288553837E0,2.054290705E0
9.481332542E0,2.006023570E0,5.697041613E-1,1.053043924E0,2.336149588E0
9.491286542E0,3.276758602E0,8.639027238E-1,1.040468902E0,3.544862534E0
9.501240542E0,4.485728033E0,1.138120766E0,1.203480869E0,4.781782206E0
9.511195542E0,4.662707171E0,1.092484417E0,1.126476036E0,4.919685825E0
9.521149542E0,3.925505132E0,9.038240039E-1,9.073106986E-1,4.129128367E0
9.531103542E0,3.275999048E0,9.008062559E-1,9.728941657E-1,3.534139886E0
9.541057542E0,2.183875112E0,8.938135707E-1,1.132222533E0,2.617277415E0
9.551011542E0,9.157134399E-1,9.842121094E-1,1.653366884E0,2.130921546E0
9.560965542E0,-7.531389177E-2,1.299840717E0,2.490692258E0,2.810481453E0
9.570920542E0,-9.682451177E-1,2.167687388E0,3.113010251E0,3.914996813E0
9.580874542E0,-1.647997971E0,3.520398629E0,2.741353623E0,4.756482262E0
9.590828542E0,-1.584993637E0,4.722423030E0,1.152973790E0,5.113006226E0
9.600782542E0,-9.726729217E-1,4.734857134E0,-7.992793695E-1,4.899368552E0
9.610736542E0,-3.892710730E-1,3.657756742E0,-2.543776790E0,4.472305525E0
9.620690542E0,-1.921091008E-1,2.830850521E0,-2.661689987E0,3.890400258E0
9.630644542E0,-7.761930272E-1,2.019847557E0,-1.954627714E0,2.915961122E0
9.640599542E0,-1.340029800E0,6.480188441E-1,-2.137104696E0,2.604385680E0
9.650553542E0,-1.650767504E0,-6.915665674E-1,-1.848255166E0,2.572808743E0
9.660507542E0,-2.006490470E0,-1.870810801E0,-9.942787490E-1,2.917966293E0
9.670461542E0,-2.125294490E0,-2.738721206E0,-4.977980268E-1,3.502181233E0
9.680415542E0,-2.321588735E0,-3.210890302E0,-7.415718826E-1,4.031069293E0
9.690369542E0,-2.616079951E0,-3.144665907E0,-1.383000403E0,4.318042160E0
9.700323542E0,-2.325173956E0,-2.581714695E0,-1.558458388E0,3.807949217E0
9.710278542E0,-1.570442256E0,-1.692484172E0,-1.442795784E0,2.722581721E0
9.720232542E0,-1.261425388E0,-7.737263793E-1,-1.552796529E0,2.144999669E0
9.730186542E0,-1.343505970E0,1.140680677E-1,-1.552680169E0,2.056413267E0
9.740141083E0,-1.511113190E0,9.361778176E-1,-1.440004178E0,2.287685296E0
9.750095083E0,-1.736660617E0,1.530508697E0,-1.230863307E0,2.621730621E0
9.760049083E0,-1.951162069E0,1.931803107E0,-9.393784373E-1,2.901952535E0
9.770004083E0,-2.313295776E0,1.871180930E0,-6.600535834E-1,3.047675532E0
9.779958083E0,-2.733429476E0,1.181606508E0,-1.152081285E-1,2.980118044E0
9.789912083E0,-2.846301788E0,2.431067616E-1,4.974103564E-1,2.899646846E0
9.799866083E0,-2.271624278E0,-5.612958652E-1,4.541896386E-1,2.383614510E0
9.809820083E0,-1.201811124E0,-1.166767445E0,-1.840988539E-2,1.675122435E0
9.819774083E0,-1.924160796E-1,-1.493086517E0,-4.920969915E-1,1.583821563E0
9.829728083E0,3.443191409E-1,-1.530003498E0,-9.714722691E-1,1.844783115E0
9.839683083E0,6.385722287E-1,-1.468363320E0,-1.284266658E0,2.052609602E0
9.849637083E0,9.537320361E-1,-1.196801668E0,-1.335706953E0,2.031268592E0
9.859591083E0,1.027569652E0,-1.019058591E0,-1.256388304E0,1.916478899E0
9.869545083E0,9.686962304E-1,-1.035151883E0,-9.931507480E-1,1.730970888E0
9.879499083E0,1.094557401E0,-1.171710681E0,-5.452177763E-1,1.693583257E0
9.889453083E0,1.382582912E0,-1.266263081E0,-8.001330812E-2,1.876528665E0
9.899408083E0,1.626901655E0,-1.232667904E0,2.596228069E-1,2.057591592E0
9.909362083E0,1.607456739E0,-1.160236105E0,4.440644538E-1,2.031565462E0
9.919316083E0,1.408007775E0,-1.153937484E0,3.887100327E-1,1.861492171E0
9.929270083E0,1.203867882E0,-1.288079043E0,1.939498043E-1,1.773714189E0
9.939224083E0,1.106661357E0,-1.455528097E0,1.078460820E-1,1.831636475E0
9.949178083E0,1.300046101E0,-1.483081346E0,1.831418657E-1,1.980704694E0
9.959132083E0,1.490290232E0,-1.419459547E0,2.334992381E-1,2.071316556E0
9.969087083E0,1.559255363E0,-1.347999555E0,2.008705688E-1,2.070924690E0
9.979041083E0,1.708356731E0,-1.097300768E0,1.762058071E-1,2.038038318E0
9.988995083E0,1.881674343E0,-7.993377686E-1,1.435959220E-1,2.049453339E0
9.998949083E0,2.048791274E0,-5.315452319E-1,1.928832722E-1,2.125391723E0
1.000890308E1,2.079557861E0,-3.467580146E-1,2.700361133E-1,2.125493242E0
1.001885708E1,2.090354745E0,-1.966482943E-1,3.252081378E-1,2.124620871E0
1.002881208E1,2.285582312E0,-2.467525005E-3,4.957971827E-1,2.338740567E0
1.003876608E1,2.182571476E0,1.850760698E-2,5.444459438E-1,2.249529320E0
1.004872008E1,1.539714553E0,-1.184569877E-1,4.238319182E-1,1.601370182E0
1.005867408E1,9.301582552E-1,-1.115759844E-1,2.893540712E-1,9.804944460E-1
1.006862808E1,8.501161587E-1,2.150372028E-2,2.411215588E-1,8.839114771E-1
1.007858208E1,1.012319675E0,1.780348527E-1,1.351795129E-1,1.036706822E0
1.008853708E1,1.125178319E0,3.641944116E-1,4.209892944E-2,1.183400245E0
1.009849108E1,1.367395062E0,7.082007265E-1,9.152420081E-2,1.542625749E0
1.010844508E1,1.902729289E0,1.217748733E0,1.421096329E-1,2.263511845E0
1.011839908E1,2.621112942E0,2.006022985E0,-7.025897384E-2,3.301408426E0
1.012835308E1,2.999645603E0,2.834333122E0,-5.131798585E-1,4.158686278E0
1.013830708E1,3.043887683E0,3.509701148E0,-1.002913405E0,4.752798089E0
1.014826108E1,2.969093609E0,3.919067055E0,-1.340676648E0,5.096274847E0
1.015821608E1,2.679727186E0,3.928741858E0,-9.996611841E-1,4.859554801E0
1.016817008E1,2.305995819E0,3.710640714E0,1.042441607E-1,4.370050122E0
1.017812408E1,2.022346803E0,3.529456551E0,1.014846257E0,4.192476960E0
1.018807808E1,1.666630708E0,3.153889305E0,1.156365102E0,3.749914121E0
1.019803208E1,1.670609446E0,2.704656497E0,1.041009112E0,3.345116240E0
1.020798608E1,1.661595817E0,2.208529020E0,8.713205747E-1,2.897878644E0
1.021794108E1,1.423838234E0,1.627457871E0,6.691177909E-1,2.263548775E0
1.022789508E1,1.270285235E0,1.036376874E0,7.012916565E-1,1.783118502E0
1.023784908E1,1.064714236E0,4.302673638E-2,4.696273112E-1,1.164481651E0
1.024780308E1,7.356880488E-1,-1.254686764E0,1.605738974E-1,1.463304397E0
1.025775708E1,1.721104538E-1,-1.974035792E0,1.238709247E-1,1.985392485E0
1.026771108E1,-8.137165104E-1,-1.974804116E0,5.950489175E-1,2.217221024E0
1.027766508E1,-2.122843629E0,-1.841281192E0,1.389249907E0,3.134772210E0
1.028762008E1,-3.248650159E0,-1.466232594E0,1.730916166E0,3.962276700E0
1.029757408E1,-3.532430153E0,-7.351832879E-1,1.272911366E0,3.826076397E0
1.030752808E1,-3.102585250E0,2.097045422E-1,1.642716765E-1,3.114000066E0
1.031748208E1,-2.651592430E0,1.113173035E0,-6.409507298E-1,2.946339163E0
1.032743608E1,-2.293222284E0,1.825032365E0,-1.006561483E0,3.098834877E0
1.033739008E1,-1.980964742E0,2.467958869E0,-1.434605005E0,3.474641537E0
1.034734508E1,-1.434649736E0,3.624887788E0,-1.744976381E0,4.271179452E0
1.035729908E1,-1.093546418E0,4.013494325E0,-1.631079637E0,4.468154121E0
1.036725308E1,-4.901199017E-1,3.397302461E0,-1.094293692E0,3.602687915E0
1.037720708E1,6.478048360E-1,2.176519607E0,-2.289639549E-1,2.282391991E0
1.038716108E1,1.843793449E0,7.172545552E-1,1.038601740E0,2.234439964E0
1.039711508E1,2.429888525E0,-2.726585895E-1,1.277687371E0,2.758837793E0
1.040706908E1,1.999760032E0,-7.358656579E-1,1.450024697E0,2.577423146E0
1.041702408E1,6.483702618E-1,-9.972385365E-1,1.329233062E0,1.783740236E0
1.042697808E1,-8.908808997E-1,-1.360654099E0,1.033266156E0,1.926833491E0
1.043693208E1,-2.271326362E0,-1.896217538E0,5.585921127E-1,3.011077804E0
1.044688608E1,-2.805724158E0,-2.168266262E0,1.674046147E-1,3.549857876E0
1.045684008E1,-2.871110939E0,-2.197709332E0,-3.282540621E-1,3.630558506E0
1.046679408E1,-3.119635439E0,-2.409318312E0,-7.357386272E-1,4.009769486E0
1.047674908E1,-3.505041794E0,-2.739286632E0,-8.949384288E-1,4.537612150E0
1.048670308E1,-3.619398422E0,-2.926943663E0,-7.955483343E-1,4.722281366E0
1.049665708E1,-3.460392748E0,-2.823114070E0,-5.047556287E-1,4.494337467E0
1.050661108E1,-3.157566619E0,-2.712301732E0,-1.701545602E-1,4.166024509E0
1.051656508E1,-2.642847335E0,-2.490260149E0,-2.162826598E-2,3.631322821E0
1.052651908E1,-2.086094464E0,-2.284853311E0,-2.116048872E-2,3.093992975E0
1.053647308E1,-1.628233505E0,-2.355876516E0,-9.802725479E-2,2.865468172E0
1.054642808E1,-1.163004177E0,-2.727286391E0,-2.869000679E-1,2.978755012E0
1.055638208E1,-6.779793924E-1,-3.051939007E0,-3.704216963E-1,3.148205837E0
1.056633608E1,4.189003766E-2,-3.163803844E0,-3.840410310E-1,3.187302472E0
1.057629008E1,4.405812675E-1,-2.930388258E0,-3.420048130E-1,2.982994215E0
1.058624408E1,3.398790577E-1,-2.472626701E0,-1.732430595E-1,2.501882038E0
1.059619808E1,4.544163644E-2,-1.997279059E0,6.253962591E-2,1.998774571E0
1.060615308E1,-2.595520556E-1,-1.380688999E0,6.444415176E-1,1.545630697E0
1.061610708E1,2.982857662E-1,-2.216468954E-1,1.250045829E0,1.304115148E0
1.062606108E1,9.502099657E-1,7.366392446E-1,1.640778560E0,2.034131421E0
1.063601508E1,1.749231108E0,1.561968471E0,2.422870404E0,3.371921703E0
1.064596908E1,3.113284193E0,2.575337722E0,3.326877426E0,5.233833801E0
1.065592308E1,4.574953328E0,3.415465082E0,3.841735289E0,6.881462759E0
1.066587708E1,5.859225833E0,3.800831677E0,3.552895700E0,7.835809891E0
1.067583208E1,5.881903090E0,3.464569414E0,2.386880207E0,7.231681845E0
1.068578608E1,4.937801126E0,2.374512761E0,1.000379588E0,5.569645422E0
1.069574008E1,4.229988654E0,1.113815060E0,7.284191557E-1,4.434408920E0
1.070569408E1,3.472010289E0,9.143022144E-1,1.359206913E0,3.839042513E0
1.071564808E1,2.591566084E0,2.775169825E0,2.015611249E0,4.298891838E0
1.072560208E1,1.229295230E0,5.560395691E0,1.905850241E0,6.005117163E0
1.073555679E1,-1.222767983E0,6.763272032E0,-8.296000332E-1,6.922806247E0
1.074551079E1,-3.260025917E0,6.233827119E0,-2.715619442E0,7.540753178E0
1.075546479E1,-4.529388607E0,5.616849974E0,-1.047167911E0,7.291153915E0
1.076541879E1,-6.021029985E0,3.520506218E0,-1.392095162E0,7.112291828E0
1.077537279E1,-6.768077273E0,2.852447212E-1,-2.305029713E0,7.155515111E0
1.078532679E1,-5.424273680E0,-2.336280742E0,-1.704249939E0,6.146984669E0
1.079528079E1,-3.067199948E0,-3.878827686E0,-1.136371863E0,5.073890100E0
1.080523579E1,-1.626732232E0,-4.773296145E0,-1.299865860E0,5.207712079E0
1.081518979E1,-1.234027382E0,-4.801897801E0,-1.476120821E0,5.173004808E0
1.082514379E1,-1.237508814E0,-4.001733236E0,-1.428629881E0,4.425638970E0
1.083509779E1,-9.810556363E-1,-3.202696014E0,-1.532051777E0,3.683329278E0
1.084505179E1,-4.928682393E-1,-2.246230697E0,-2.013496311E0,3.056573055E0
1.085500579E1,1.373095804E-1,-5.716343272E-1,-2.805984067E0,2.866908842E0
1.086496079E1,2.851586209E-1,1.018243489E0,-3.627358822E0,3.778341867E0
1.087491479E1,-1.409940572E-1,2.030986503E0,-4.249938185E0,4.712404914E0
1.088486879E1,-7.073905948E-1,2.306369310E0,-3.887080446E0,4.574837182E0
1.089482279E1,-1.274905851E0,1.879752363E0,-2.706776113E0,3.533481399E0
1.090477679E1,-1.543095413E0,1.195325246E0,-1.047969491E0,2.215442609E0
1.091473079E1,-1.552591730E0,2.358673239E-1,9.802190459E-1,1.851216857E0
1.092468479E1,-1.651990011E0,-1.267029651E0,2.840428260E0,3.521713764E0
1.093463979E1,-1.458702404E0,-2.270271524E0,2.613123599E0,3.756375971E0
1.094459379E1,-7.763718058E-1,-2.204245934E0,1.371021212E0,2.709456124E0
1.095454779E1,5.167432979E-2,-1.746555714E0,6.872864056E-1,1.877628744E0
1.096450179E1,4.727029467E-1,-1.149695914E0,4.830981266E-1,1.333653842E0
1.097445579E1,4.939907585E-1,-8.405009973E-1,3.125769460E-1,1.023803274E0
1.098440979E1,5.035684247E-1,-5.945355320E-1,-3.108032662E-2,7.797561438E-1
1.099436479E1,3.853539502E-1,-4.876688951E-1,-7.065447950E-1,9.410229357E-1
1.100431879E1,2.732233574E-1,-8.094049197E-1,-1.344942631E0,1.593316669E0
1.101427279E1,5.688750261E-1,-1.304843595E0,-1.550059447E0,2.104499915E0
1.102422679E1,1.009008616E0,-1.831412262E0,-1.344764875E0,2.486073577E0
1.103418079E1,1.271769404E0,-2.048164453E0,-1.112203567E0,2.655065313E0
1.104413479E1,1.563494302E0,-1.897869376E0,-9.870754179E-1,2.649667995E0
1.105408879E1,1.710295229E0,-1.441830409E0,-9.393739057E-1,2.426192085E0
1.106404379E1,1.656419423E0,-9.004846591E-1,-7.457351732E-1,2.027490783E0
1.107399779E1,1.397347862E0,-4.174204463E-1,-5.049748993E-1,1.543314785E0
1.108395179E1,1.163215700E0,-2.142267787E-1,-1.413540264E-1,1.191194710E0
1.109390579E1,1.038479826E0,-2.159651560E-1,2.625119893E-1,1.092700252E0
1.110385979E1,9.156481703E-1,-1.455354434E-1,6.360005502E-1,1.124317054E0
1.111381379E1,8.879857971E-1,-8.391163766E-2,1.112264378E0,1.425725074E0
1.112376879E1,9.692759087E-1,1.693412125E-2,1.660833778E0,1.923057823E0
1.113372279E1,1.205390643E0,1.554622614E-1,2.053696504E0,2.386378940E0
1.114367679E1,1.498611112E0,2.208680463E-1,2.074361733E0,2.568578315E0
1.115363079E1,1.613387716E0,3.347881794E-1,1.700792481E0,2.368078992E0
1.116358479E1,1.595118676E0,5.365902096E-1,1.192621347E0,2.062687160E0
1.117353879E1,1.535254297E0,8.443987513E-1,7.511684060E-1,1.906375877E0
1.118349379E1,1.477328855E0,1.215518020E0,4.035023189E-1,1.955197874E0
1.119344779E1,1.300732418E0,1.480280530E0,1.532381268E-1,1.976516429E0
1.120340179E1,1.154030674E0,1.681896619E0,7.769911721E-2,2.041225168E0
1.121335579E1,1.350345165E0,1.858097200E0,2.301358831E-1,2.308445320E0
1.122330979E1,1.805489362E0,1.967081698E0,4.938511562E-1,2.715343663E0
1.123326379E1,2.213153290E0,1.991872723E0,5.461253373E-1,3.027186370E0
1.124321779E1,2.406631078E0,1.951139265E0,2.850588528E-1,3.111282071E0
1.125317279E1,2.490320083E0,1.966261334E0,-1.690570378E-1,3.177492413E0
1.126312679E1,2.516277335E0,2.103769135E0,-4.470206599E-1,3.310184839E0
1.127308079E1,2.541566543E0,2.276437413E0,-5.152812016E-1,3.450687251E0
1.128303479E1,2.695283118E0,2.521322898E0,-4.845961833E-1,3.722425782E0
1.129298879E1,2.886240902E0,2.584342434E0,-2.845477331E-1,3.884608059E0
1.130294279E1,2.850688369E0,2.340743337E0,-1.907466265E-1,3.693492632E0
1.131289779E1,2.409657451E0,1.762047912E0,-2.375185776E-1,2.994607979E0
1.132285179E1,1.811532606E0,1.069106664E0,-4.326775130E-1,2.147521658E0
1.133280579E1,1.277439888E0,4.549355972E-1,-6.419330621E-1,1.500299011E0
1.134275979E1,8.209429380E-1,-2.373127556E-1,-5.664455080E-1,1.025243954E0
1.135271379E1,5.443716111E-1,-4.530574715E-1,-4.274104142E-1,8.272129023E-1
1.136266779E1,3.892576975E-1,-3.118612468E-1,-3.617087603E-1,6.161267886E-1
1.137262179E1,1.568715318E-1,-1.312267220E-1,-2.883870880E-1,3.535480767E-1
1.138257679E1,-8.317905463E-2,9.146565557E-2,-2.225719249E-1,2.546035802E-1
1.139253079E1,-4.218620278E-1,3.729512018E-1,-1.974628115E-1,5.967007050E-1
1.140248479E1,-1.007748760E0,1.168363150E0,-1.368026268E-1,1.548981915E0
1.141243879E1,-1.670754749E0,2.063938487E0,-1.097208090E-1,2.657687371E0
1.142239279E1,-2.586387790E0,2.703507519E0,-9.859750450E-2,3.742736455E0
1.143234679E1,-3.840774007E0,3.033707389E0,-1.651184995E-1,4.897161383E0
1.144230079E1,-5.262412811E0,3.083352588E0,-3.385368294E-1,6.108572580E0
1.145225579E1,-6.167596877E0,2.467482905E0,-6.100821090E-1,6.670826284E0
1.146220979E1,-6.231397601E0,1.637533793E0,-1.160371175E0,6.546624646E0
1.147216379E1,-4.929807982E0,4.487989444E-1,-1.383975719E0,5.140021014E0
1.148211779E1,-2.437185411E0,-3.231814563E-1,-1.433807445E0,2.846071463E0
1.149207179E1,-4.778669883E-1,-3.345344102E-1,-1.011517876E0,1.167663711E0
1.150202579E1,8.379488339E-1,-3.347472489E-2,4.504547296E-1,9.519392149E-1
1.151198079E1,1.294645320E0,-3.724062413E-1,1.247013317E0,1.835711068E0
1.152193479E1,5.486280917E-1,-1.253815529E0,1.309606006E0,1.894231785E0
1.153188879E1,-4.080362499E-1,-2.007014088E0,1.565269809E0,2.577725491E0
1.154184279E1,-1.081810763E0,-2.705365764E0,1.958997192E0,3.510981123E0
1.155179679E1,-1.577159538E0,-3.016199656E0,2.142195282E0,4.021677908E0
1.156175079E1,-2.045528090E0,-3.150314317E0,1.772173681E0,4.153223449E0
1.157170579E1,-2.373123024E0,-3.499787779E0,1.178860071E0,4.389753803E0
1.158165979E1,-2.500228482E0,-3.681720386E0,6.566851486E-1,4.498604544E0
1.159161379E1,-2.630098066E0,-3.741183645E0,2.780929917E-1,4.581616157E0
1.160156779E1,-2.622663916E0,-3.712593099E0,-5.585158065E-2,4.545858878E0
1.161152179E1,-2.590058087E0,-3.572614265E0,-2.760581607E-1,4.421332569E0
1.162147579E1,-2.342833862E0,-3.503984326E0,-5.058211376E-1,4.245307019E0
1.163142979E1,-1.986578508E0,-3.605911235E0,-8.336499609E-1,4.200483574E0
1.164138479E1,-1.626217969E0,-3.735141717E0,-1.189096792E0,4.243797793E0
1.165133879E1,-1.331236757E0,-3.689629329E0,-1.518238315E0,4.206019909E0
1.166129279E1,-1.153395593E0,-3.665569206E0,-1.691283154E0,4.198470877E0
1.167124679E1,-1.088457659E0,-3.681469540E0,-1.534120522E0,4.134184784E0
1.168120079E1,-1.224062557E0,-2.965185623E0,-1.042537939E0,3.373060965E0
1.169115479E1,-1.006649922E0,-1.349849614E0,-3.100988960E-1,1.712191395E0
1.170110879E1,-7.184042640E-1,-4.930196822E-2,3.821418554E-1,8.152102601E-1
1.171106379E1,-3.956382523E-1,8.764572805E-1,8.407319623E-1,1.277316415E0
1.172101779E1,2.820516298E-1,1.755832322E0,1.149014567E0,2.117246972E0
1.173097179E1,1.097952441E0,2.601763043E0,1.480246031E0,3.188384984E0
1.174092604E1,1.915956422E0,3.527722267E0,2.046599153E0,4.506027241E0
1.175088004E1,2.710992832E0,4.222607714E0,2.871127896E0,5.781286487E0
1.176083404E1,3.587916428E0,4.599740844E0,4.039108053E0,7.095431911E0
1.177078904E1,4.712314656E0,4.766258436E0,4.921587966E0,8.315356698E0
1.178074304E1,5.577813962E0,4.455811631E0,5.262338551E0,8.868961208E0
1.179069704E1,5.688470764E0,3.547293482E0,5.061729353E0,8.400184208E0
1.180065104E1,4.898362826E0,2.222302721E0,4.470361843E0,6.994049096E0
1.181060504E1,3.421604366E0,9.984465712E-1,3.687390431E0,5.128461775E0
1.182055904E1,1.446382467E0,6.656908840E-1,2.626905486E0,3.071774573E0
1.183051304E1,-6.263348834E-1,1.564774550E0,1.457653559E0,2.228355600E0
1.184046804E1,-2.419293370E0,2.837609317E0,5.213412559E-1,3.765209656E0
1.185042204E1,-4.008318370E0,3.228828390E0,-5.127950386E-1,5.172514638E0
1.186037604E1,-5.028433553E0,2.573804582E0,-1.646223925E0,5.883847996E0
1.187033004E1,-5.517964202E0,1.593945724E0,-2.030316997E0,6.091861703E0
1.188028404E1,-5.583664686E0,5.358961451E-1,-1.644304284E0,5.845359919E0
1.189023804E1,-5.415757796E0,-4.780046171E-1,-1.130690636E0,5.553141654E0
1.190019304E1,-4.764959770E0,-1.573830718E0,-1.058389302E0,5.128544886E0
1.191014704E1,-3.734568398E0,-2.392906348E0,-1.145171338E0,4.580875386E0
1.192010104E1,-2.741212705E0,-2.849527112E0,-1.189693866E0,4.129094737E0
1.193005504E1,-2.026613663E0,-2.921553115E0,-1.333611311E0,3.797519542E0
1.194000904E1,-1.761195680E0,-3.026690730E0,-1.363595833E0,3.757933022E0
1.194996304E1,-1.570686085E0,-3.149015066E0,-1.374419614E0,3.777880350E0
1.195991704E1,-1.124320825E0,-2.681112099E0,-1.350727281E0,3.205764120E0
1.196987204E1,-4.673709803E-1,-1.672220646E0,-1.267289268E0,2.149599872E0
1.197982604E1,1.291813203E-1,-6.303988445E-1,-1.251752631E0,1.407471195E0
1.198978004E1,3.761890244E-1,2.358491975E-1,-1.383517297E0,1.453018629E0
1.199973404E1,2.623938389E-1,6.694874811E-1,-1.643575721E0,1.793991406E0
1.200968804E1,3.794137638E-2,6.034151137E-1,-1.804260716E0,1.902867856E0
1.201964204E1,-2.535312325E-1,7.670085132E-2,-1.822391177E0,1.841540309E0
1.202959704E1,-5.023458450E-1,-5.502995914E-1,-1.785361930E0,1.934605440E0
1.203955104E1,-7.212245223E-1,-1.143044706E0,-1.550565816E0,2.056932270E0
1.204950504E1,-6.909338987E-1,-1.324128882E0,-1.286552920E0,1.971275060E0
1.205945904E1,-3.373762301E-1,-1.111993652E0,-1.082406741E0,1.588067050E0
1.206941304E1,3.875752343E-1,-6.182226026E-1,-8.511967242E-1,1.121137642E0
1.207936704E1,1.181453385E0,-3.556568921E-2,-7.389997655E-1,1.393993426E0
1.208932204E1,1.728597014E0,3.255513328E-1,-7.022582012E-1,1.893989939E0
1.209927604E1,1.988822085E0,3.541506493E-1,-6.987475330E-1,2.137541598E0
1.210923004E1,1.899724113E0,1.696195400E-1,-7.795057672E-1,2.060425134E0
1.211918404E1,1.581323486E0,5.835521221E-3,-8.791984552E-1,1.809311456E0
1.212913804E1,1.375931558E0,-4.027632308E-1,-8.896409976E-1,1.687266125E0
1.213909204E1,1.327584879E0,-9.543878013E-1,-8.574392116E-1,1.846223087E0
1.214904604E1,1.474155571E0,-1.023356879E0,-8.327347255E-1,1.978343012E0
1.215900104E1,1.631345685E0,-1.014673179E0,-7.569910634E-1,2.064917886E0
1.216895504E1,1.465624484E0,-1.572244953E0,-5.794005625E-1,2.226143376E0
1.217890904E1,1.483001532E0,-1.216588061E0,-4.474078552E-1,1.969658306E0
1.218886304E1,1.486400810E0,-1.670040804E-1,-2.801225603E-1,1.521757662E0
1.219881704E1,9.963744642E-1,-3.414195067E-1,-5.307974461E-2,1.054583715E0
1.220877104E1,5.146869783E-1,-5.418714148E-1,2.969695580E-1,8.041879346E-1
1.221872604E1,1.144465287E-1,-5.811272818E-1,8.195024765E-1,1.011133638E0
1.222868004E1,-2.229923397E-1,-5.807887280E-1,1.414481227E0,1.545250230E0
1.223863404E1,-4.411098558E-1,-6.338913864E-1,2.059811522E0,2.199822652E0
1.224858804E1,-2.531541784E-1,-5.425181168E-1,2.614943837E0,2.682600271E0
1.225854204E1,2.863836126E-1,-4.022925299E-1,3.022012957E0,3.062093592E0
1.226849604E1,7.651739493E-1,-3.364879650E-1,3.264809232E0,3.370117897E0
1.227845004E1,1.014536062E0,-1.921336591E-1,3.157284783E0,3.321843760E0
1.228840504E1,1.201886699E0,2.220445061E-1,2.558003651E0,2.834998779E0
1.229835904E1,1.303809515E0,7.102776575E-1,1.793222927E0,2.328102675E0
1.230831304E1,1.430378199E0,1.245604869E0,1.196834851E0,2.242749861E0
1.231826704E1,1.468614750E0,1.686460955E0,8.672111515E-1,2.398548523E0
1.232822104E1,1.281974842E0,1.998723906E0,7.805588508E-1,2.499525728E0
1.233817504E1,1.070074232E0,2.355122809E0,9.154868603E-1,2.744044187E0
1.234813004E1,9.928288588E-1,2.705506682E0,1.325831445E0,3.172271201E0
1.235808404E1,1.016027979E0,3.051789903E0,1.830233317E0,3.700741610E0
1.236803804E1,1.121018391E0,3.368279806E0,2.179139160E0,4.165409771E0
1.237799204E1,1.455974385E0,3.434254525E0,2.011198940E0,4.237792672E0
1.238794604E1,1.915109453E0,3.322689065E0,1.411701461E0,4.086662190E0
1.239790004E1,2.296259036E0,3.292281790E0,1.111422379E0,4.164995156E0
1.240785404E1,2.394680831E0,3.474510266E0,8.936640282E-1,4.313392315E0
1.241780904E1,2.451138768E0,3.746135652E0,5.876847880E-1,4.515195123E0
1.242776304E1,2.660748001E0,3.953179711E0,3.364825563E-1,4.777073399E0
1.243771704E1,2.948340964E0,3.941312787E0,9.022326842E-3,4.922066875E0
1.244767104E1,3.233538030E0,3.379568440E0,-3.705040690E-1,4.691963800E0
1.245762504E1,3.327128856E0,2.092028511E0,-6.160322356E-1,3.978173630E0
1.246757904E1,2.805178320E0,5.351354223E-1,-5.213529503E-1,2.902964731E0
1.247753404E1,2.065773928E0,-5.011397105E-1,-2.527546674E-1,2.140665282E0
1.248748804E1,1.497177229E0,-8.682086134E-1,6.578643858E-2,1.731950838E0
1.249744204E1,1.128256074E0,-6.556289953E-1,2.870165006E-1,1.336109883E0
1.250739604E1,7.108180864E-1,-3.435239196E-1,4.594573952E-1,9.134397262E-1
1.251735004E1,3.281124133E-1,5.109472454E-2,4.568230784E-1,5.647616768E-1
1.252730404E1,4.204089582E-2,5.965393728E-1,2.444371493E-1,6.460465774E-1
1.253725804E1,-3.603777878E-1,1.110528924E0,-1.068333077E-1,1.172416307E0
1.254721304E1,-7.358235580E-1,1.835160327E0,-6.256006193E-1,2.073795040E0
1.255716704E1,-1.123096491E0,2.443797589E0,-1.368733928E0,3.017768207E0
1.256712104E1,-2.001166580E0,2.855637453E0,-2.343906827E0,4.201574961E0
1.257707504E1,-3.117154173E0,2.792745386E0,-3.332167402E0,5.349711817E0
1.258702904E1,-3.763545152E0,2.502824646E0,-4.430699009E0,6.329257226E0
1.259698304E1,-3.048575981E0,1.585728047E0,-4.615123699E0,5.753930458E0
1.260693804E1,-1.622918678E0,-1.475574106E-1,-2.572272027E0,3.045032283E0
1.261689204E1,-6.076097600E-1,-1.705624620E0,-8.728318606E-1,2.010020005E0
1.262684604E1,-3.072525080E-1,-2.634450733E0,1.105650008E-1,2.654610967E0
1.263680004E1,-5.199564891E-1,-3.312869251E0,3.455464715E-1,3.371180771E0
1.264675404E1,-8.503037082E-1,-3.435799359E0,1.480868760E-1,3.542550403E0
1.265670804E1,-1.103177951E0,-2.965188546E0,-3.312155306E-2,3.163928214E0
1.266666204E1,-1.302018074E0,-2.277838991E0,5.098567396E-2,2.624195319E0
1.267661704E1,-1.326651517E0,-1.794404064E0,5.359932089E-1,2.295033532E0
1.268657104E1,-1.315720001E0,-1.975435030E0,1.232121774E0,2.674245080E0
1.269652504E1,-1.262286536E0,-2.240419149E0,1.612324693E0,3.035199529E0
1.270647904E1,-1.027386927E0,-2.465862057E0,1.566207703E0,3.096612044E0
1.271643304E1,-9.443167763E-1,-2.759755395E0,1.169027686E0,3.142389178E0
1.272638704E1,-9.561986109E-1,-2.930064322E0,6.588990507E-1,3.151783729E0
1.273634204E1,-1.000305109E0,-3.139818565E0,1.733655587E-1,3.299867656E0
1.274629617E1,-6.408355397E-1,-3.391424255E0,-4.915081769E-1,3.486260024E0
1.275625017E1,-3.896936075E-1,-3.316353022E0,-1.257075498E0,3.567954216E0
1.276620417E1,-1.006492742E-1,-3.280631797E0,-2.103176812E0,3.898208302E0
1.277615817E1,-1.147885725E-1,-3.244704165E0,-2.724719464E0,4.238558445E0
1.278611217E1,-4.709150143E-1,-3.214344252E0,-3.032599049E0,4.444145240E0
1.279606617E1,-9.202357496E-1,-3.011431251E0,-3.185762478E0,4.479356492E0
1.280602117E1,-1.345300626E0,-2.516307156E0,-3.027391226E0,4.160136190E0
1.281597517E1,-1.742104813E0,-1.526974055E0,-2.368780736E0,3.313261402E0
1.282592917E1,-1.682079636E0,6.074321508E-2,-1.404599433E0,2.192254823E0
1.283588317E1,-1.031824817E0,1.625026014E0,-3.973810150E-1,1.965523765E0
1.284583717E1,1.775481451E-1,3.091640432E0,7.341497925E-1,3.182568117E0
1.285579117E1,1.567430648E0,4.529108818E0,2.305417383E0,5.318328199E0
1.286574617E1,2.871553866E0,5.094915226E0,4.829688155E0,7.584844786E0
1.287570017E1,3.902905351E0,4.958145928E0,7.028216974E0,9.445195342E0
1.288565417E1,4.375146952E0,4.367289464E0,6.710831863E0,9.124165299E0
1.289560817E1,4.000407964E0,3.252616618E0,5.357325985E0,7.435302311E0
1.290556217E1,2.834296285E0,2.327334502E0,4.054330695E0,5.466929549E0
1.291551617E1,1.592081486E0,2.347627264E0,3.019505964E0,4.142884682E0
1.292547117E1,9.426946856E-2,3.133411771E0,1.041123644E0,3.303194590E0
1.293542517E1,-1.746829364E0,3.805655630E0,-1.673274314E0,4.509354114E0
1.294537917E1,-3.182766949E0,3.645488698E0,-2.921190003E0,5.652693547E0
1.295533317E1,-4.331121511E0,3.199121026E0,-2.854958299E0,6.094569367E0
1.296528717E1,-5.489076033E0,2.397887591E0,-2.570167029E0,6.518096282E0
1.297524117E1,-6.121026728E0,6.336604214E-1,-2.546421486E0,6.659786492E0
1.298519517E1,-5.577109373E0,-1.345448415E0,-2.403622247E0,6.220271722E0
1.299515017E1,-3.824027581E0,-2.778277035E0,-2.140742249E0,5.188910059E0
1.300510417E1,-1.837969476E0,-3.355153976E0,-2.032056836E0,4.331794660E0
1.301505817E1,-4.428622663E-1,-3.398139197E0,-2.010831150E0,3.973275589E0
1.302501217E1,4.762959145E-1,-3.211876143E0,-2.060522836E0,3.845615752E0
1.303496617E1,1.080662736E0,-2.960121934E0,-2.205421225E0,3.846301677E0
1.304492017E1,1.408879302E0,-2.762567321E0,-2.319967741E0,3.872850295E0
1.305487517E1,1.678338003E0,-2.442815257E0,-2.378565466E0,3.800228744E0
1.306482917E1,2.168431885E0,-1.326176577E0,-2.943660852E0,3.889213335E0
1.307478317E1,2.389684970E0,8.327779949E-2,-4.051703541E0,4.704660565E0
1.308473717E1,1.794728000E0,6.731922770E-1,-4.921002660E0,5.281146051E0
1.309469117E1,9.095376107E-1,7.004794782E-1,-5.209326525E0,5.334324044E0
1.310464517E1,-5.427692547E-2,5.228340501E-1,-5.031142568E0,5.058527154E0
1.311459917E1,-8.821533456E-1,3.312406737E-1,-4.460129215E0,4.558581745E0
1.312455417E1,-1.186869149E0,3.036464936E-1,-3.680147485E0,3.878704046E0
1.313450817E1,-1.154028408E0,1.627549088E-1,-2.814547314E0,3.046300594E0
1.314446217E1,-5.602272865E-1,-8.059041917E-2,-1.966750161E0,2.046571676E0
1.315441617E1,4.112973882E-1,-3.545611238E-1,-1.256125179E0,1.368477109E0
1.316437017E1,1.076289384E0,-6.005874002E-1,-1.724443299E-1,1.244524451E0
1.317432417E1,1.321509183E0,-8.889112651E-1,5.482240638E0,5.708897631E0
1.318427917E1,6.875080150E-1,-1.069752781E0,6.611471881E0,6.732651686E0
1.319423317E1,-1.679386117E-1,-8.839054638E-1,4.336775769E0,4.429121393E0
1.320418717E1,-3.811824735E-1,-1.051994203E0,2.208157137E0,2.475469617E0
1.321414117E1,-1.543062669E-1,-1.486783218E0,-1.799545302E-1,1.505562485E0
1.322409517E1,1.833270214E-1,-1.749299812E0,-1.682439825E0,2.433980771E0
1.323404917E1,4.308349822E-1,-1.828933042E0,-2.313211722E0,2.980195182E0
1.324400317E1,7.976666343E-1,-1.861655815E0,-2.400104270E0,3.140467312E0
1.325395817E1,1.331135893E0,-1.694154721E0,-2.239086569E0,3.107344791E0
1.326391217E1,1.738134846E0,-1.212278078E0,-2.048929269E0,2.947684181E0
1.327386617E1,1.898076075E0,-7.122961164E-1,-1.828338380E0,2.729996296E0
1.328382017E1,1.866753418E0,-2.747904843E-1,-1.580388955E0,2.461281654E0
1.329377417E1,1.796928454E0,1.158444518E-1,-1.218443967E0,2.174161334E0
1.330372817E1,1.968185506E0,4.253089249E-1,-8.047768486E-1,2.168480492E0
1.331368317E1,2.297703006E0,6.626041389E-1,-2.264345956E-1,2.402031634E0
1.332363717E1,2.691842909E0,8.163058037E-1,9.368689585E-1,2.964809750E0
1.333359117E1,2.585512462E0,7.477325821E-1,2.439439659E0,3.632470861E0
1.334354517E1,1.450810563E0,6.543905550E-1,4.496359148E0,4.769729958E0
1.335349917E1,1.823403038E-1,4.420255297E-1,5.327266034E0,5.348681889E0
1.336345317E1,-2.010382377E-1,4.911637759E-1,4.120019485E0,4.154060517E0
1.337340717E1,9.921277776E-2,9.047075182E-1,2.072370025E0,2.263416972E0
1.338336217E1,5.253847517E-1,1.334818177E0,9.168083310E-2,1.437419242E0
1.339331617E1,4.757683495E-1,1.582372915E0,-1.554945235E0,2.268945625E0
1.340327017E1,-5.531319827E-3,1.653821797E0,-2.462850741E0,2.966612699E0
1.341322417E1,-1.726615539E-1,1.819581006E0,-1.911135539E0,2.644451946E0
1.342317817E1,1.668368500E-1,1.963351759E0,-5.181077456E-1,2.037405286E0
1.343313217E1,6.259801036E-1,2.022530844E0,7.808452182E-1,2.256590650E0
1.344308717E1,1.153141093E0,2.094068604E0,1.723417697E0,2.947036861E0
1.345304117E1,1.831889395E0,2.209189755E0,2.130487987E0,3.574257572E0
1.346299517E1,2.466185116E0,2.391904719E0,1.815250558E0,3.885667484E0
1.347294917E1,2.785786030E0,2.750853009E0,1.275983054E0,4.117757744E0
1.348290317E1,2.843497756E0,3.339667041E0,9.119844512E-1,4.480019093E0
1.349285717E1,2.855309716E0,4.020953618E0,4.985722712E-1,4.956756589E0
1.350281217E1,2.983844088E0,4.498648918E0,-3.300519347E-2,5.398356877E0
1.351276617E1,3.343218347E0,4.406449437E0,-5.626353892E-1,5.559717991E0
1.352272017E1,3.540104038E0,3.755128085E0,-1.101581515E0,5.277007236E0
1.353267417E1,3.012120930E0,2.605247399E0,-1.447184705E0,4.237278617E0
1.354262817E1,2.362981029E0,1.231306087E0,-1.535933744E0,3.075530278E0
1.355258217E1,1.765905612E0,-8.386076689E-2,-1.318305055E0,2.205308023E0
1.356253617E1,1.026481778E0,-9.792793983E-1,-7.820745222E-1,1.619967141E0
1.357249117E1,4.355617252E-1,-1.312577122E0,-6.340084769E-2,1.384410483E0
1.358244517E1,-1.777480468E-1,-1.437463124E0,5.957260251E-1,1.566136679E0
1.359239917E1,-6.861779197E-1,-1.028426415E0,6.960962592E-1,1.418820296E0
1.360235317E1,-9.144915180E-1,-2.353311342E-1,5.710829347E-2,9.460110128E-1
1.361230717E1,-9.894155467E-1,6.818128270E-1,-7.398277313E-1,1.411083600E0
1.362226117E1,-1.344182931E0,1.508092226E0,-1.451394700E0,2.487512109E0
1.363221617E1,-2.057497779E0,2.144859858E0,-2.248172265E0,3.726660630E0
1.364217017E1,-2.561368431E0,2.862214401E0,-2.959094870E0,4.848620625E0
1.365212417E1,-2.684870104E0,3.288239025E0,-3.548949706E0,5.533180584E0
1.366207817E1,-2.223461639E0,3.181122127E0,-3.817942676E0,5.444263580E0
1.367203217E1,-1.111147121E0,2.730404127E0,-3.754143122E0,4.773190254E0
1.368198617E1,3.847364842E-1,1.993701732E0,-3.066335729E0,3.677673662E0
1.369194017E1,1.689684087E0,9.659173411E-1,-1.907858759E0,2.725427245E0
1.370189517E1,2.727432864E0,-1.325616413E-1,-3.789703256E-1,2.756824464E0
1.371184917E1,3.248959477E0,-1.222904808E0,5.376254591E-1,3.512872754E0
1.372180317E1,2.759770598E0,-1.808919777E0,-2.185762301E-1,3.307007723E0
1.373175717E1,1.832787965E0,-1.933426294E0,-6.580816099E-1,2.744142920E0
1.374171079E1,9.586673053E-1,-1.706952522E0,-9.788236079E-1,2.188795461E0
1.375166479E1,1.465269485E-1,-1.581023378E0,-1.105003890E0,1.934460820E0
1.376161979E1,-5.912553902E-1,-1.365065238E0,-1.052319600E0,1.822186210E0
1.377157379E1,-1.429394843E0,-1.573601507E0,-1.050164024E0,2.371125429E0
1.378152779E1,-2.134955406E0,-1.752437428E0,-9.788078204E-1,2.930381592E0
1.379148179E1,-2.378344003E0,-1.819357057E0,-9.667678186E-1,3.146620459E0
1.380143579E1,-2.541244654E0,-2.073020382E0,-8.682398960E-1,3.392518005E0
1.381138979E1,-2.497567122E0,-2.355627424E0,-9.424159196E-1,3.560192390E0
1.382134379E1,-2.213534237E0,-2.476441424E0,-1.132375876E0,3.509240811E0
1.383129879E1,-1.922728959E0,-2.471770084E0,-1.318359142E0,3.397735249E0
1.384125279E1,-1.591417388E0,-2.501735310E0,-1.564302095E0,3.352361841E0
1.385120679E1,-1.370505634E0,-2.687042930E0,-1.766709020E0,3.495675351E0
1.386116079E1,-1.019220120E0,-2.953954875E0,-1.851535454E0,3.632195286E0
1.387111479E1,-5.937387758E-1,-3.192379187E0,-1.890487851E0,3.757360100E0
1.388106879E1,-3.329297515E-1,-3.223553032E0,-1.800036687E0,3.707056575E0
1.389102379E1,-3.354639713E-1,-3.064140392E0,-1.433111041E0,3.399308705E0
1.390097779E1,-4.530990233E-1,-2.681967546E0,-1.104199898E0,2.935558901E0
1.391093179E1,-5.024248555E-1,-1.874779306E0,-7.479658860E-1,2.080067583E0
1.392088579E1,-5.142755901E-1,-9.468741292E-1,-1.004446399E-1,1.082191815E0
1.393083979E1,-3.334525292E-1,1.804900986E-1,5.524899584E-1,6.700838896E-1
1.394079379E1,-8.525795907E-2,1.388724827E0,1.136737314E0,1.796662820E0
1.395074879E1,2.814518517E-1,2.574566474E0,2.012641887E0,3.279990097E0
1.396070279E1,7.325707519E-1,4.261622091E0,3.004775950E0,5.265620691E0
1.397065679E1,1.133183596E0,5.972622641E0,3.792225160E0,7.165005090E0
1.398061079E1,1.595038569E0,5.917579876E0,4.368225603E0,7.526173965E0
1.399056479E1,2.325724179E0,4.754681534E0,4.332476311E0,6.840054125E0
1.400051879E1,2.929849437E0,3.376502160E0,3.614147623E0,5.748638760E0
1.401047279E1,3.110302698E0,1.846237877E0,2.797072325E0,4.572328812E0
1.402042779E1,2.925399413E0,8.948520362E-2,2.103097582E0,3.604023969E0
1.403038179E1,1.980624727E0,-1.423474830E0,1.330078862E0,2.778176502E0
1.404033579E1,4.167779104E-1,-1.190248693E0,1.300890293E0,1.811825414E0
1.405028979E1,-1.360250495E0,1.853493102E0,1.596288411E0,2.798902424E0
1.406024379E1,-2.845862077E0,4.559684494E0,3.146117771E-1,5.384109417E0
1.407019779E1,-4.142907241E0,4.030331383E0,-1.815292658E0,6.058262036E0
1.408015179E1,-5.051592620E0,2.511056356E0,-2.547941762E0,6.189991862E0
1.409010679E1,-5.288707155E0,1.702922621E0,-2.574567059E0,6.123623467E0
1.410006079E1,-4.783871712E0,9.038444692E-1,-2.882366830E0,5.657773583E0
1.411001479E1,-3.249700611E0,-1.135412335E-1,-3.122182193E0,4.507933820E0
1.411996879E1,-1.270817478E0,-1.110552313E0,-2.914054061E0,3.367493811E0
1.412992279E1,3.599153461E-1,-1.883044345E0,-2.787071832E0,3.382774669E0
1.413987679E1,1.563361571E0,-2.391784852E0,-2.732738920E0,3.953807808E0
1.414983179E1,2.330996321E0,-2.780599549E0,-2.755130540E0,4.555877741E0
1.415978579E1,2.722551901E0,-3.012722901E0,-2.758624544E0,4.909052608E0
1.416973979E1,3.132068081E0,-2.933959737E0,-2.850846829E0,5.152212907E0
1.417969379E1,3.692133107E0,-2.246614274E0,-3.183831142E0,5.368044646E0
1.418964779E1,4.021324332E0,-1.205779483E0,-4.105717195E0,5.872126295E0
1.419960179E1,3.725003230E0,-2.296377003E-1,-5.268593318E0,6.456505098E0
1.420955679E1,3.024440137E0,4.508068782E-1,-5.773136693E0,6.532960451E0
1.421951079E1,2.143767744E0,5.506410688E-1,-5.422865086E0,5.857167530E0
1.422946479E1,1.190169317E0,4.859889901E-1,-4.819666319E0,4.988173186E0
1.423941879E1,3.444686835E-1,4.049746478E-1,-4.157915289E0,4.191768445E0
1.424937279E1,-1.372157326E-1,3.334403962E-1,-3.570157850E0,3.588319624E0
1.425932679E1,-2.448669197E-1,2.376413691E-1,-3.068197190E0,3.087113089E0
1.426928179E1,1.418183684E-1,2.377828717E-2,-2.369186532E0,2.373546436E0
1.427923579E1,5.675123325E-1,-3.038417906E-1,-1.717575890E0,1.834245627E0
1.428918979E1,8.035169198E-1,-4.733449709E-1,-1.278935898E0,1.582836673E0
1.429914379E1,7.017527094E-1,-6.257304275E-1,-5.932450515E-1,1.111726191E0
1.430909779E1,-4.471935913E-1,-1.257703342E0,3.475893132E0,3.723389970E0
1.431905179E1,-1.452327915E0,-1.906314510E0,4.983635695E0,5.529911041E0
1.432900579E1,-6.280295527E-1,-1.790820891E0,3.325106304E0,3.828549662E0
1.433896079E1,5.448089097E-1,-1.280996311E0,1.781204560E0,2.260632208E0
1.434891479E1,1.365911623E0,-1.208357520E0,-4.975753941E-2,1.824367910E0
1.435886879E1,1.587609974E0,-1.221541822E0,-1.103413448E0,2.286961103E0
1.436882279E1,1.497002105E0,-1.005174962E0,-1.612814689E0,2.419207149E0
1.437877679E1,1.899413333E0,-7.151343548E-1,-1.620864551E0,2.597381383E0
1.438873079E1,2.429340348E0,-3.760040331E-1,-1.333385024E0,2.796603151E0
1.439868479E1,2.883223739E0,7.903096676E-3,-9.768937343E-1,3.044234379E0
1.440863979E1,3.166084550E0,4.335692865E-1,-5.193233818E-1,3.237556251E0
1.441859379E1,3.198014148E0,7.225948173E-1,-2.219837864E-2,3.278708668E0
1.442854779E1,3.143926819E0,8.820963353E-1,4.116270250E-1,3.291171007E0
1.443850179E1,3.147664944E0,1.013163428E0,7.872047961E-1,3.399115491E0
1.444845579E1,2.990864547E0,1.167013612E0,1.052859006E0,3.378713305E0
1.445840979E1,2.459840887E0,1.368166017E0,1.195423479E0,3.058060289E0
1.446836479E1,1.795372656E0,1.524281412E0,1.160472332E0,2.625546197E0
1.447831879E1,1.348012711E0,1.813330917E0,8.898234308E-1,2.428393094E0
1.448827279E1,1.093038148E0,2.054062539E0,4.960696629E-1,2.379073437E0
1.449822679E1,8.306820604E-1,2.183133978E0,9.774329938E-2,2.337875190E0
1.450818079E1,4.641779986E-1,2.182269759E0,-2.064078454E-1,2.240617485E0
1.451813479E1,2.206563771E-2,2.121148229E0,-4.609417475E-1,2.170765763E0
1.452808979E1,-4.107759628E-1,2.011129943E0,-5.866662395E-1,2.134843745E0
1.453804379E1,-7.481623524E-1,2.056945801E0,-4.305854523E-1,2.230734580E0
1.454799779E1,-7.304756945E-1,2.157198653E0,-2.464243256E-2,2.277654060E0
1.455795179E1,2.788186312E-2,2.007955490E0,5.062964066E-1,2.070989787E0
1.456790579E1,1.309069085E0,1.623163676E0,9.183497301E-1,2.278527686E0
1.457785979E1,2.147539345E0,1.547638700E0,1.001713411E0,2.830289833E0
1.458781379E1,2.576925533E0,1.887503432E0,8.451179588E-1,3.304154774E0
1.459776879E1,3.036260283E0,2.345190729E0,5.790976767E-1,3.879967807E0
1.460772279E1,3.546010896E0,2.850108325E0,5.878299451E-1,4.587249152E0
1.461767679E1,3.823010166E0,3.634778354E0,2.814942988E-1,5.282637546E0
1.462763079E1,4.003856067E0,4.250365616E0,-3.563895482E-1,5.850084169E0
1.463758479E1,4.393257826E0,4.276858181E0,-8.919079632E-1,6.195783246E0
1.464753879E1,4.710709011E0,3.085021968E0,-1.048534990E0,5.727788889E0
1.465749379E1,3.807491948E0,1.291483877E0,-7.386816039E-1,4.087857146E0
1.466744779E1,2.209112280E0,2.725644493E-1,-1.394759738E-1,2.230229134E0
1.467740179E1,1.346571080E0,-1.724776590E-1,1.566876917E-1,1.366584520E0
1.468735579E1,1.357151324E0,-2.638164300E-1,-2.686351204E-1,1.408411749E0
1.469730979E1,1.680356462E0,1.926131308E-2,-9.032182324E-1,1.907818653E0
1.470726379E1,1.740112959E0,4.602887231E-1,-1.378208317E0,2.267006173E0
1.471721779E1,1.351912073E0,1.332541271E0,-1.735848877E0,2.572256561E0
1.472717279E1,7.416615643E-1,2.240243148E0,-2.098110784E0,3.157660543E0
1.473712679E1,-1.986813712E-1,2.831468571E0,-2.617705477E0,3.861226557E0
1.474708029E1,-1.319927657E0,2.993874986E0,-3.518790060E0,4.804932876E0
1.475703429E1,-2.192787877E0,2.851328639E0,-4.471081050E0,5.738376028E0
1.476698829E1,-2.339604007E0,2.555910932E0,-5.568008766E0,6.558136109E0
1.477694229E1,-1.600880961E0,2.016319932E0,-6.660836999E0,7.141086433E0
1.478689729E1,1.262025020E-1,1.216339554E0,-7.820377870E0,7.915410224E0
1.479685129E1,2.151287118E0,6.690009928E-1,-6.896856936E0,7.255496825E0
1.480680529E1,3.187779182E0,-6.812474012E-2,-5.025294183E0,5.951483741E0
1.481675929E1,3.389827673E0,-7.288659561E-1,-3.163845944E0,4.693836212E0
1.482671329E1,3.005623797E0,-1.365005597E0,-1.542529695E0,3.643681181E0
1.483666729E1,2.081271680E0,-1.855922620E0,-9.158610821E-1,2.935122161E0
1.484662129E1,6.574050871E-1,-2.050047841E0,-1.222632912E0,2.475824880E0
1.485657629E1,-7.350004162E-1,-1.829305510E0,-1.903131285E0,2.740162942E0
1.486653029E1,-1.963545595E0,-1.472529461E0,-2.427520110E0,3.452058545E0
1.487648429E1,-3.107571171E0,-1.308792220E0,-2.811407359E0,4.390210359E0
1.488643829E1,-3.948129763E0,-1.452489883E0,-2.704409160E0,5.001128312E0
1.489639229E1,-4.461524068E0,-1.744472351E0,-2.291101645E0,5.310134419E0
1.490634629E1,-4.449270351E0,-2.064251897E0,-1.747788015E0,5.206909400E0
1.491630129E1,-3.831220826E0,-2.182498385E0,-1.299786923E0,4.596846556E0
1.492625529E1,-2.797125535E0,-2.182409508E0,-1.039834918E0,3.697036539E0
1.493620929E1,-1.687492112E0,-2.112216023E0,-8.023856297E-1,2.820090220E0
1.494616329E1,-7.233901848E-1,-1.996239424E0,-7.105966231E-1,2.239020491E0
1.495611729E1,-9.140309036E-2,-1.885780842E0,-7.988352004E-1,2.050039411E0
1.496607129E1,2.100777407E-1,-1.760954483E0,-8.530666637E-1,1.967947174E0
1.497602629E1,1.624667872E-1,-1.726235470E0,-6.840558189E-1,1.863925084E0
1.498598029E1,-1.678152354E-1,-1.725039715E0,-3.374662042E-1,1.765731409E0
1.499593429E1,-5.043380644E-1,-1.532582704E0,1.356858087E-1,1.619128552E0
1.500588829E1,-5.299474072E-1,-1.035107444E0,5.389366972E-1,1.281695923E0
1.501584229E1,-2.586876179E-1,-3.325907958E-1,5.716802278E-1,7.101789943E-1
1.502579629E1,-4.418192692E-2,2.585936970E-1,2.424043648E-1,3.571870922E-1
1.503575029E1,-4.438716419E-2,6.976833397E-1,-1.852469547E-1,7.232210569E-1
1.504570529E1,-1.149422264E-1,1.068126671E0,-3.839043523E-1,1.140828143E0
1.505565929E1,-1.046099040E-1,1.416677442E0,1.223398313E-2,1.420587159E0
1.506561329E1,1.200148322E-1,1.757482406E0,1.156680413E0,2.107381680E0
1.507556729E1,5.791199327E-1,2.016498272E0,2.621765491E0,3.357871270E0
1.508552129E1,1.080846923E0,2.102166998E0,3.429433203E0,4.165134842E0
1.509547529E1,1.403874963E0,2.027234344E0,3.373100835E0,4.178319428E0
1.510543029E1,1.206477056E0,1.600831406E0,2.667281387E0,3.336560815E0
1.511538429E1,4.958166978E-1,5.608082074E-1,1.744901244E0,1.898689126E0
1.512533829E1,-3.414227957E-1,-7.948067611E-1,1.096538730E0,1.396669073E0
1.513529229E1,-8.425750778E-1,-1.934864125E0,8.851708013E-1,2.288484059E0
1.514524629E1,-1.011220252E0,-2.720208337E0,9.264379643E-1,3.046372777E0
1.515520029E1,-1.239660297E0,-2.860256753E0,1.298012732E0,3.376782995E0
1.516515429E1,-1.824908258E0,-1.910183027E0,2.138182338E0,3.398663422E0
1.517510929E1,-2.545071072E0,6.335849923E-1,3.000997480E0,3.985574309E0
1.518506329E1,-3.016374780E0,3.845297998E0,2.344974674E0,5.420677054E0
1.519501729E1,-3.019998592E0,5.291353020E0,-2.773696911E-1,6.098831218E0
1.520497129E1,-2.438824824E0,4.974611102E0,-2.207834078E0,5.963988050E0
1.521492529E1,-1.120543012E0,4.565283203E0,-2.426318215E0,5.290032839E0
1.522487929E1,3.751935359E-1,4.509268631E0,-2.560947432E0,5.199300484E0
1.523483429E1,1.524003377E0,3.700994563E0,-2.849711300E0,4.913328967E0
1.524478829E1,2.136014336E0,1.545107440E0,-3.378169202E0,4.285083593E0
1.525474229E1,2.693181337E0,-8.422194940E-1,-4.148336381E0,5.017096184E0
1.526469629E1,3.230623485E0,-2.580931168E0,-4.577684562E0,6.168738100E0
1.527465029E1,3.654346061E0,-3.756088783E0,-4.911501519E0,7.182290390E0
1.528460429E1,4.091669260E0,-4.221023118E0,-4.873761835E0,7.636252217E0
1.529455829E1,4.337571867E0,-4.246995866E0,-4.222238755E0,7.394511728E0
1.530451329E1,4.257930159E0,-3.631271778E0,-3.493982078E0,6.597273280E0
1.531446729E1,4.192676986E0,-2.110187624E0,-3.146294941E0,5.650717121E0
1.532442129E1,3.711134804E0,-4.485141850E-1,-3.098074123E0,4.855074642E0
1.533437529E1,2.647428336E0,4.963332993E-1,-3.001645351E0,4.033001159E0
1.534432929E1,1.332411901E0,9.937471640E-1,-2.957728668E0,3.392788496E0
1.535428329E1,1.760289654E-2,1.141371233E0,-2.939807537E0,3.153649712E0
1.536423829E1,-1.054013100E0,1.103166111E0,-2.869670770E0,3.250066063E0
1.537419229E1,-1.807892421E0,8.087348288E-1,-2.747739952E0,3.387122949E0
1.538414629E1,-2.120321141E0,1.295099795E-1,-2.414246784E0,3.215761513E0
1.539410029E1,-1.830938930E0,-7.693772203E-1,-1.758597470E0,2.652723833E0
1.540405429E1,-1.015652880E0,-1.448102133E0,-1.159060887E0,2.114703927E0
1.541400829E1,-2.017426810E-1,-1.740982148E0,-7.128744791E-1,1.892064738E0
1.542396329E1,6.202818458E-1,-1.676835269E0,-1.481643516E-1,1.794011918E0
1.543391729E1,1.231311204E0,-1.413489540E0,1.875858702E0,2.651966408E0
1.544387129E1,1.420824579E0,-7.395862412E-1,2.813433419E0,3.237458556E0
1.545382529E1,1.357921403E0,-1.678788239E-1,1.214185440E0,1.829311378E0
1.546377929E1,1.116734574E0,-1.119040132E-2,1.059709531E-1,1.121807104E0
1.547373329E1,9.879654372E-1,-2.267965382E-1,-8.452144378E-1,1.319810525E0
1.548368729E1,1.288155349E0,-6.813000262E-1,-1.241723487E0,1.914521127E0
1.549364229E1,1.726814345E0,-1.103944960E0,-1.202465866E0,2.376237869E0
1.550359629E1,2.044377211E0,-1.417193751E0,-1.049806759E0,2.700001952E0
1.551355029E1,2.393830500E0,-1.526190528E0,-8.895643991E-1,2.975064169E0
1.552350429E1,2.531260533E0,-1.259998375E0,-7.553538430E-1,2.926676480E0
1.553345829E1,2.320119038E0,-3.841614836E-1,-5.786796373E-1,2.421859310E0
1.554341229E1,2.168616803E0,5.691586161E-1,-4.084993494E-1,2.278971717E0
1.555336729E1,1.890122108E0,1.367097146E0,-1.649651380E-1,2.338531523E0
1.556332129E1,1.501031129E0,1.732399605E0,1.086330807E-1,2.294799335E0
1.557327529E1,1.185974671E0,1.747725157E0,4.145827925E-1,2.152430728E0
1.558322929E1,9.628247488E-1,1.544919745E0,7.719938493E-1,1.977317126E0
1.559318329E1,8.383813816E-1,1.382518592E0,1.083308966E0,1.946226944E0
1.560313729E1,7.585791671E-1,1.412379738E0,1.380106616E0,2.115408506E0
1.561309229E1,7.544867009E-1,1.463979662E0,1.640573176E0,2.324643409E0
1.562304629E1,7.960975340E-1,1.523272183E0,1.819092178E0,2.502643758E0
1.563300029E1,7.457535920E-1,1.709302518E0,1.862560380E0,2.635715213E0
1.564295429E1,6.570133236E-1,2.037540062E0,1.807520539E0,2.801850551E0
1.565290829E1,6.211848021E-1,2.359005945E0,1.700385514E0,2.973565285E0
1.566286229E1,5.434372991E-1,2.485163131E0,1.608326951E0,3.009663680E0
1.567281629E1,3.370992914E-1,2.529253476E0,1.552643624E0,2.986881535E0
1.568277129E1,1.184251204E-1,2.547798505E0,1.551943713E0,2.985603962E0
1.569272529E1,1.489171806E-1,2.438828040E0,1.467903728E0,2.850403461E0
1.570267929E1,5.767798769E-1,2.255423689E0,1.088563128E0,2.569937884E0
1.571263329E1,1.257615927E0,2.194675212E0,5.526004708E-1,2.589124251E0
1.572258729E1,1.920029154E0,2.353012549E0,1.920470472E-1,3.043035011E0
1.573254129E1,2.388357214E0,2.673183859E0,2.027077639E-1,3.590439049E0
1.574249567E1,2.721779776E0,3.345049987E0,4.226566279E-1,4.333137800E0
1.575245067E1,3.106716016E0,4.455466645E0,3.449962119E-1,5.442599546E0
1.576240467E1,3.641956980E0,5.068305132E0,-2.051331890E-1,6.244489345E0
1.577235867E1,4.234856461E0,4.561681902E0,-6.248948604E-1,6.255672994E0
1.578231267E1,4.379278887E0,3.172676409E0,-8.080746782E-1,5.467809786E0
1.579226667E1,3.804661311E0,1.750601987E0,-8.954852897E-1,4.282750157E0
1.580222067E1,3.078181019E0,8.933253282E-1,-1.032121344E0,3.367269368E0
1.581217567E1,2.448801344E0,5.260406631E-1,-1.213968070E0,2.783355039E0
1.582212967E1,1.808873292E0,3.061824310E-1,-1.397422414E0,2.306200267E0
1.583208367E1,1.094972407E0,8.677969694E-2,-1.502576109E0,1.861244275E0
1.584203767E1,4.408093089E-1,1.431070948E-1,-1.562365644E0,1.629656065E0
1.585199167E1,-6.845481545E-2,6.837815845E-1,-1.780485645E0,1.908500052E0
1.586194567E1,-6.451838216E-1,1.315234097E0,-2.081337754E0,2.545205245E0
1.587190067E1,-1.554177641E0,1.693325002E0,-2.507840680E0,3.401776386E0
1.588185467E1,-2.406999599E0,1.897341372E0,-3.142985417E0,4.389978210E0
1.589180867E1,-2.877464524E0,1.945199078E0,-3.695668918E0,5.071643747E0
1.590176267E1,-2.890306764E0,1.772043142E0,-4.199775214E0,5.397418080E0
1.591171667E1,-2.555380590E0,1.288125821E0,-4.914569553E0,5.687023121E0
1.592167067E1,-1.354348900E0,7.588522321E-1,-5.489887041E0,5.705171109E0
1.593162567E1,3.454901920E-1,4.777257049E-1,-4.727424738E0,4.764045548E0
1.594157967E1,1.565377837E0,-5.173850298E-2,-3.205888594E0,3.568025549E0
1.595153367E1,2.138590327E0,-7.861973208E-1,-1.989730596E0,3.025012836E0
1.596148767E1,2.148993401E0,-1.563952432E0,-1.145704604E0,2.894263099E0
1.597144167E1,1.584960162E0,-2.092033773E0,-7.718491307E-1,2.735773218E0
1.598139567E1,7.541099940E-1,-2.072311699E0,-8.440762773E-1,2.361275593E0
1.599134967E1,1.196033344E-2,-1.651315681E0,-1.335388865E0,2.123734905E0
1.600130467E1,-6.103974201E-1,-1.289406361E0,-1.867379655E0,2.349949052E0
1.601125867E1,-1.274407230E0,-1.189828278E0,-1.994668569E0,2.649246651E0
1.602121267E1,-1.719835839E0,-1.354601061E0,-1.714870237E0,2.780927773E0
1.603116667E1,-1.911669390E0,-1.687851423E0,-1.231549332E0,2.831966814E0
1.604112067E1,-1.741947231E0,-2.028113181E0,-7.933604524E-1,2.788735204E0
1.605107467E1,-1.257978746E0,-2.163630005E0,-5.627617621E-1,2.565249720E0
1.606102967E1,-7.029803324E-1,-2.095056199E0,-5.152987432E-1,2.269135214E0
1.607098367E1,-2.577132525E-1,-1.943685819E0,-7.494879162E-1,2.099062367E0
1.608093767E1,1.803043764E-1,-1.736560484E0,-1.052884441E0,2.038802989E0
1.609089167E1,3.246071537E-1,-1.883772908E0,-1.198572789E0,2.256224037E0
1.610084567E1,1.733573726E-1,-2.225085411E0,-1.125114219E0,2.499387899E0
1.611079967E1,-8.613460287E-3,-2.759061331E0,-9.081418803E-1,2.904688502E0
1.612075367E1,-3.988314168E-1,-3.031608823E0,-6.446830076E-1,3.124953557E0
1.613070867E1,-8.641119079E-1,-3.033503906E0,-3.165548068E-1,3.170022442E0
1.614066267E1,-1.134984758E0,-2.605367852E0,-1.738368443E-1,2.847165484E0
1.615061667E1,-1.187489246E0,-1.848326502E0,-3.339827254E-2,2.197170229E0
1.616057067E1,-1.081439173E0,-6.791195995E-1,1.537206683E-1,1.286213108E0
1.617052467E1,-1.009926702E0,7.692684621E-1,2.777854282E-1,1.299573259E0
1.618047867E1,-7.879130401E-1,2.277962367E0,3.464573215E-1,2.435149314E0
1.619043367E1,-1.274921054E-1,3.662369025E0,6.102975789E-1,3.715059118E0
1.620038767E1,1.179876902E0,4.763688000E0,2.179447747E0,5.369806826E0
1.621034167E1,2.393777583E0,5.567320549E0,5.221395763E0,7.999262648E0
1.622029567E1,3.189685374E0,5.500760524E0,7.069519951E0,9.508447374E0
1.623024967E1,3.663140565E0,4.272548198E0,5.469106622E0,7.847572500E0
1.624020367E1,3.491816270E0,2.374464814E0,3.406248408E0,5.425255039E0
1.625015767E1,2.965677081E0,3.135814977E-1,1.536696074E0,3.354848541E0
1.626011267E1,1.955210389E0,-1.614861799E0,-1.085769767E0,2.758536257E0
1.627006667E1,6.220937517E-1,-3.062022530E0,-3.936802245E0,5.026071481E0
1.628002067E1,-8.725741446E-1,-3.153016316E0,-5.391921036E0,6.306798711E0
1.628997467E1,-1.727206400E0,-1.304516736E0,-5.139314303E0,5.576518392E0
1.629992867E1,-1.698404478E0,1.114959360E0,-3.977501205E0,4.466343916E0
1.630988267E1,-2.194730322E0,2.095722197E0,-3.148454318E0,4.372831726E0
1.631983767E1,-3.403455486E0,1.506503538E0,-2.784317209E0,4.648170013E0
1.632979167E1,-4.263286209E0,1.066119906E0,-2.631031281E0,5.121967059E0
1.633974567E1,-4.282289367E0,1.158887737E0,-2.524773340E0,5.104459171E0
1.634969967E1,-2.883883013E0,1.173705166E0,-2.366574581E0,3.910887405E0
1.635965367E1,-9.208250758E-1,7.236028773E-1,-2.318525087E0,2.597513912E0
