"Time (s)","Linear Acceleration x (m/s^2)","Linear Acceleration y (m/s^2)","Linear Acceleration z (m/s^2)","Absolute acceleration (m/s^2)"
1.808316668E-2,2.326611786E0,4.894821167E-1,8.984616394E0,9.293871470E0
2.803816670E-2,2.160307617E0,4.364923096E-1,9.192384338E0,9.452903488E0
3.799416672E-2,1.965861969E0,3.782633972E-1,9.308991852E0,9.521818407E0
4.795016674E-2,1.725611572E0,3.748205566E-1,9.345515900E0,9.510882881E0
5.790616665E-2,1.417851562E0,4.953199768E-1,9.365574188E0,9.485231932E0
6.786116667E-2,1.086740112E0,6.722520447E-1,9.373358002E0,9.460061686E0
7.781716669E-2,7.427554321E-1,8.304730225E-1,9.726324005E0,9.789931038E0
8.777316671E-2,6.673123169E-1,8.285270691E-1,1.045695465E1,1.051093066E1
9.772916674E-2,4.697232056E-1,8.725355530E-1,1.102442459E1,1.106887057E1
1.076841668E-1,2.076182556E-1,8.183482361E-1,1.113699051E1,1.116894609E1
1.176401667E-1,2.305206299E-1,5.990542603E-1,1.100930603E1,1.102800186E1
1.275961667E-1,4.352947998E-1,4.090992737E-1,1.086665268E1,1.088305951E1
1.375521667E-1,6.659651184E-1,3.610491943E-1,1.064361649E1,1.067054066E1
1.475071667E-1,8.978329468E-1,4.450245667E-1,1.035007690E1,1.039847310E1
1.574631667E-1,1.076112213E0,5.243595886E-1,1.004980133E1,1.012084370E1
1.674191667E-1,1.144519958E0,5.032534790E-1,9.777517548E0,9.857131398E0
1.773751667E-1,1.093925171E0,5.195695496E-1,9.526489563E0,9.603157199E0
1.873301667E-1,1.094972992E0,5.554948425E-1,9.325008545E0,9.405494391E0
1.972861667E-1,1.159488831E0,5.504054260E-1,9.188791809E0,9.277998458E0
2.072421667E-1,1.225351868E0,5.159770203E-1,9.178014221E0,9.273816072E0
2.171981668E-1,1.226549377E0,4.927752686E-1,9.236243134E0,9.330350372E0
2.271531667E-1,1.110390930E0,4.173321533E-1,9.347162476E0,9.422132481E0
2.371091667E-1,1.003363495E0,3.661386108E-1,9.465715942E0,9.525784697E0
2.470649583E-1,8.788224792E-1,3.483256531E-1,9.643845520E0,9.690067911E0
2.570209584E-1,7.574249268E-1,2.826123047E-1,9.766590271E0,9.799992232E0
2.669769584E-1,6.584806824E-1,2.406994629E-1,9.848170624E0,9.873094635E0
2.769319584E-1,5.839356995E-1,2.115101624E-1,9.848170624E0,9.867734395E0
2.868879584E-1,6.051914978E-1,1.884580994E-1,9.782606964E0,9.803120535E0
2.968439583E-1,6.649172974E-1,1.645079041E-1,9.782008209E0,9.805960558E0
3.067999583E-1,6.887178040E-1,9.355545044E-2,9.796827393E0,9.821451613E0
3.167549584E-1,6.731501770E-1,1.526824951E-2,9.834399261E0,9.857422235E0
3.267109584E-1,5.155279541E-1,3.936813354E-2,9.856852570E0,9.870403310E0
3.366669584E-1,3.594026184E-1,1.143621826E-1,9.800719299E0,9.807973681E0
3.466229584E-1,2.188449097E-1,8.173004150E-2,9.890382843E0,9.893141345E0
3.565779583E-1,5.763015747E-2,-2.140548706E-1,1.014215927E1,1.014458158E1
3.665339584E-1,-5.284011841E-2,-4.586462402E-1,1.019709503E1,1.020754111E1
3.764899584E-1,-5.718109131E-2,-5.493576050E-1,1.011237122E1,1.012744366E1
3.864459584E-1,3.891906738E-3,-5.945635986E-1,1.011192215E1,1.012938747E1
3.964009584E-1,3.787124634E-2,-6.500981140E-1,1.010488678E1,1.012584804E1
4.063569583E-1,-2.903961182E-2,-7.283853149E-1,1.007030869E1,1.009665813E1
4.163129583E-1,-8.307723999E-2,-7.734416199E-1,1.003213806E1,1.006225163E1
4.262689584E-1,-9.714797974E-2,-8.039781189E-1,1.000384689E1,1.003657169E1
4.362239584E-1,-9.849517822E-2,-7.737409973E-1,9.913584595E0,9.944221234E0
4.461799584E-1,-1.447489929E-1,-7.177574158E-1,9.727371826E0,9.754890600E0
4.561359583E-1,-1.338217163E-1,-6.457571411E-1,9.560468903E0,9.583187162E0
4.660919583E-1,-7.933502197E-2,-5.929170227E-1,9.472302246E0,9.491172450E0
4.760469584E-1,-3.667373657E-2,-5.586383057E-1,9.493857422E0,9.510349650E0
4.860029584E-1,-4.805007935E-2,-5.429209900E-1,9.585616608E0,9.601099820E0
4.959589584E-1,-8.442443848E-2,-5.430706787E-1,9.704020386E0,9.719571230E0
5.059149584E-1,-1.191522217E-1,-5.090913391E-1,9.757159882E0,9.771158590E0
5.158699583E-1,-1.528321838E-1,-5.101391602E-1,9.732012177E0,9.746571738E0
5.258259583E-1,-1.588197327E-1,-4.981640625E-1,9.711953888E0,9.726018685E0
5.357819584E-1,-1.788780212E-1,-4.948709106E-1,9.707912292E0,9.722163115E0
5.457379584E-1,-2.284249878E-1,-5.251080322E-1,9.747579803E0,9.764385718E0
5.556929584E-1,-2.712359619E-1,-5.189707947E-1,9.798623657E0,9.816105399E0
5.656489583E-1,-2.770738220E-1,-4.716691589E-1,9.859546967E0,9.874710532E0
5.756049583E-1,-3.082090759E-1,-3.993695068E-1,9.935139771E0,9.947939038E0
5.855609584E-1,-3.829037476E-1,-3.589535522E-1,9.940678253E0,9.954523950E0
5.955159584E-1,-4.649331665E-1,-3.842509460E-1,9.928852844E0,9.947156902E0
6.054719584E-1,-5.882766724E-1,-4.644841003E-1,9.848619690E0,9.877101028E0
6.154279584E-1,-6.444099426E-1,-5.381309509E-1,9.717941437E0,9.754139371E0
6.253839583E-1,-5.447172546E-1,-5.755531311E-1,9.658515015E0,9.690969538E0
6.353389584E-1,-4.222718811E-1,-5.367837524E-1,9.659562836E0,9.683677221E0
6.452949584E-1,-2.897973633E-1,-4.529580688E-1,9.704319763E0,9.719206531E0
6.552509584E-1,-2.404000854E-1,-4.179309082E-1,9.765841827E0,9.777736192E0
6.652069584E-1,-2.703378296E-1,-4.098477173E-1,9.774972839E0,9.787295423E0
6.751619583E-1,-3.564088440E-1,-4.451742554E-1,9.710457001E0,9.727187802E0
6.851179583E-1,-4.032614136E-1,-4.764591980E-1,9.617350616E0,9.637586109E0
6.950739584E-1,-3.763174438E-1,-4.863386536E-1,9.602980499E0,9.622649041E0
7.050299584E-1,-2.833607483E-1,-5.132826233E-1,9.658515015E0,9.676293952E0
7.149859584E-1,-2.040257263E-1,-5.162763977E-1,9.766141205E0,9.781905839E0
7.249409583E-1,-1.811233521E-1,-5.272036743E-1,9.856253815E0,9.872005300E0
7.348969583E-1,-1.993853760E-1,-5.647755432E-1,9.881551208E0,9.899685865E0
7.448529584E-1,-2.315684509E-1,-6.068380737E-1,9.860295410E0,9.881664939E0
7.548089584E-1,-2.722837830E-1,-6.489006042E-1,9.808802490E0,9.834013257E0
7.647639584E-1,-2.383044434E-1,-6.643185425E-1,9.767338715E0,9.792804180E0
7.747199584E-1,-2.260299683E-1,-6.517446899E-1,9.773775330E0,9.798088838E0
7.846759583E-1,-2.345622253E-1,-6.409671021E-1,9.844428406E0,9.868061051E0
7.946319584E-1,-2.451901245E-1,-5.803431702E-1,9.900561676E0,9.920586570E0
8.045869584E-1,-3.056643677E-1,-5.254074097E-1,9.961185608E0,9.979714543E0
8.145429584E-1,-4.073030090E-1,-5.001100159E-1,9.981094208E0,1.000191218E1
8.244989584E-1,-4.257147217E-1,-5.008584595E-1,9.977801056E0,9.999430290E0
8.344549583E-1,-4.245172119E-1,-5.192701721E-1,9.987381134E0,1.000987704E1
8.444099583E-1,-3.914360046E-1,-5.655239868E-1,1.000624191E1,1.002985128E1
8.543659584E-1,-3.465293884E-1,-5.897735596E-1,1.000758911E1,1.003093990E1
8.643219584E-1,-2.833607483E-1,-5.499563599E-1,1.002674927E1,1.004581735E1
8.742779584E-1,-2.264790344E-1,-4.848417664E-1,1.001237915E1,1.002666946E1
8.842329584E-1,-1.963916016E-1,-4.561015320E-1,9.969119110E0,9.981479555E0
8.941889583E-1,-2.168989563E-1,-4.252656555E-1,9.927805023E0,9.939276061E0
9.041449584E-1,-2.366578674E-1,-4.194277954E-1,9.880503387E0,9.892233004E0
9.141009584E-1,-2.977308655E-1,-4.781057739E-1,9.811945953E0,9.828098096E0
9.240559584E-1,-3.417393494E-1,-4.728666687E-1,9.798923035E0,9.816276346E0
9.340119584E-1,-3.573069763E-1,-4.722679138E-1,9.826765137E0,9.844593354E0
9.439679583E-1,-3.288661194E-1,-4.331991577E-1,9.888287201E0,9.903233725E0
9.539239584E-1,-2.565664673E-1,-3.878434753E-1,9.968819733E0,9.979660103E0
9.638789584E-1,-2.439926147E-1,-3.727249146E-1,1.006012985E1,1.006998853E1
9.738349584E-1,-2.899470520E-1,-3.496728516E-1,1.009979736E1,1.011000728E1
9.837909584E-1,-3.197351074E-1,-3.255729675E-1,1.011027557E1,1.012056819E1
9.937469583E-1,-3.297642517E-1,-2.914439392E-1,1.014485367E1,1.015439511E1
1.003701958E0,-3.314108276E-1,-3.273692322E-1,1.015308655E1,1.016376752E1
1.013657958E0,-3.520678711E-1,-4.001179504E-1,1.011401779E1,1.012805026E1
1.023613958E0,-2.930905151E-1,-4.733157349E-1,1.002165985E1,1.003711094E1
1.033569958E0,-2.089654541E-1,-4.396357727E-1,1.004830444E1,1.006008789E1
1.043524958E0,-1.594184875E-1,-3.487747192E-1,1.015458344E1,1.016182182E1
1.053480958E0,-1.484912109E-1,-2.776725769E-1,1.029259644E1,1.029741196E1
1.063436958E0,-1.764830017E-1,-2.206411743E-1,1.050440598E1,1.050820506E1
1.073392958E0,-2.493814087E-1,-1.996847534E-1,1.067205734E1,1.067683816E1
1.083347958E0,-3.418890381E-1,-2.173480225E-1,1.072369995E1,1.073134982E1
1.093303958E0,-3.927832031E-1,-2.510279846E-1,1.073552536E1,1.074564090E1
1.103259958E0,-3.999682617E-1,-2.595602417E-1,1.074001602E1,1.075059488E1
1.113215958E0,-3.983216858E-1,-2.670446777E-1,1.071935898E1,1.073008061E1
1.123170958E0,-3.945794678E-1,-2.329156494E-1,1.073762100E1,1.074739259E1
1.133126958E0,-3.534150696E-1,-1.871109009E-1,1.075064392E1,1.075807870E1
1.143082958E0,-2.707868958E-1,-1.588197327E-1,1.076426559E1,1.076884223E1
1.153038958E0,-1.922003174E-1,-1.387614441E-1,1.078582077E1,1.078842553E1
1.162993958E0,-1.402583313E-1,-1.728904724E-1,1.075303894E1,1.075534332E1
1.172949958E0,-8.652008057E-2,-1.823208618E-1,1.072130493E1,1.072320409E1
1.182905958E0,-5.298980713E-2,-1.633103943E-1,1.068657715E1,1.068795628E1
1.192861958E0,-7.484436035E-2,-1.528321838E-1,1.064661026E1,1.064797020E1
1.202816958E0,-1.014889526E-1,-1.213975525E-1,1.063283890E1,1.063401619E1
1.212772958E0,-1.544787598E-1,-9.535171509E-2,1.056248520E1,1.056404512E1
1.222728958E0,-1.764830017E-1,-8.187973022E-2,1.053703812E1,1.053883403E1
1.232684958E0,-1.916015625E-1,-8.592132568E-2,1.052536240E1,1.052745683E1
1.242639958E0,-1.969903564E-1,-7.214996338E-2,1.053599030E1,1.053807868E1
1.252596292E0,-2.046244812E-1,-4.101470947E-2,1.054467224E1,1.054673722E1
1.262552292E0,-2.206411743E-1,-4.490661621E-4,1.055305481E1,1.055536113E1
1.272508292E0,-2.032772827E-1,5.673202515E-2,1.054916290E1,1.055127377E1
1.282463292E0,-1.902543640E-1,1.007405090E-1,1.053045181E1,1.053265212E1
1.292419292E0,-1.927990723E-1,9.804611206E-2,1.056922119E1,1.057143420E1
1.302375292E0,-1.553768921E-1,1.199006653E-1,1.062909668E1,1.063090845E1
1.312331292E0,-1.251397705E-1,1.305285645E-1,1.068522995E1,1.068675988E1
1.322286292E0,-1.279838562E-1,1.219963074E-1,1.078073135E1,1.078218120E1
1.332242292E0,-1.438508606E-1,1.204994202E-1,1.085901855E1,1.086063981E1
1.342198292E0,-1.895059204E-1,1.475930786E-1,1.093955109E1,1.094218782E1
1.352154292E0,-2.960842896E-1,1.646575928E-1,1.098475708E1,1.098998026E1
1.362109292E0,-4.070036316E-1,1.830693054E-1,1.097158447E1,1.098065718E1
1.372065292E0,-4.320016479E-1,1.725910950E-1,1.090781708E1,1.091773266E1
1.382021292E0,-4.126918030E-1,1.812730408E-1,1.082249451E1,1.083187711E1
1.391977292E0,-3.893403625E-1,1.892065430E-1,1.069211563E1,1.070087481E1
1.401932292E0,-3.679348755E-1,2.011816406E-1,1.061173279E1,1.062001520E1
1.411888292E0,-3.332070923E-1,2.200424194E-1,1.053299652E1,1.054056267E1
1.421844292E0,-3.483256531E-1,2.269281006E-1,1.044243484E1,1.045070680E1
1.431800292E0,-3.682342529E-1,2.393522644E-1,1.036055511E1,1.036985961E1
1.441755292E0,-3.537144470E-1,2.508782959E-1,1.028481262E1,1.029395087E1
1.451711292E0,-2.733316040E-1,2.294728088E-1,1.022688309E1,1.023310831E1
1.461667292E0,-1.986369324E-1,2.151026917E-1,1.015143997E1,1.015566144E1
1.471623292E0,-1.175056458E-1,1.706451416E-1,1.011596375E1,1.011808528E1
1.481578292E0,7.334747314E-3,2.251318359E-1,1.015383499E1,1.015633316E1
1.491534292E0,1.422042847E-1,3.261717224E-1,1.033241364E1,1.033853866E1
1.501490292E0,2.227368164E-1,3.941304016E-1,1.047147446E1,1.048125602E1
1.511446292E0,2.468367004E-1,4.317022705E-1,1.053733749E1,1.054906520E1
1.521401292E0,1.966909790E-1,4.990621948E-1,1.051248917E1,1.052616639E1
1.531357292E0,1.956431580E-1,5.749543762E-1,1.036250107E1,1.038028310E1
1.541313292E0,2.170486450E-1,6.794371033E-1,1.004441254E1,1.006970546E1
1.551269292E0,2.739303589E-1,6.590794373E-1,9.721084900E0,9.747251673E0
1.561224292E0,3.565585327E-1,5.522016907E-1,9.622290344E0,9.644715245E0
1.571180292E0,4.257147217E-1,5.072950745E-1,9.687704315E0,9.710313909E0
1.581136292E0,5.001100159E-1,5.137316895E-1,9.805659027E0,9.831834988E0
1.591092292E0,4.574487305E-1,5.322930908E-1,9.815688171E0,9.840748424E0
1.601047292E0,2.624043274E-1,5.508544922E-1,9.546398163E0,9.565877617E0
1.611003292E0,1.429527283E-1,6.692582703E-1,9.177116089E0,9.202597558E0
1.620959292E0,-8.893006897E-1,1.034947815E0,1.022074585E1,1.031143144E1
1.630915292E0,-2.022893372E0,2.647993469E-1,1.148456772E1,1.166436933E1
1.640870292E0,-1.014290771E0,-1.920955353E0,1.186268143E1,1.205993640E1
1.650826292E0,-2.290237427E-2,-1.705702972E0,1.272428970E1,1.283812664E1
1.660782292E0,-1.077309723E0,-3.513194275E-1,1.319685699E1,1.324541642E1
1.670738292E0,-1.179547119E0,8.640032959E-1,1.212299011E1,1.221084446E1
1.680693292E0,-3.135978699E-1,1.542691956E0,1.166359543E1,1.176935429E1
1.690649292E0,1.191222839E0,9.249266052E-1,1.185160446E1,1.194717663E1
1.700605292E0,1.921703796E0,2.137554932E-1,1.184516785E1,1.200194310E1
1.710561292E0,-1.380728760E0,-1.950444031E-1,1.333546875E1,1.340817590E1
1.720516292E0,-3.996090088E0,-3.209326172E-1,1.479957413E1,1.533294258E1
1.730472292E0,-2.683320007E0,2.615061951E-1,1.226235031E1,1.255523106E1
1.740428292E0,-9.403445435E-1,1.917213135E0,8.857830048E0,9.111591915E0
1.750384292E0,1.317260742E-2,1.476978607E0,7.653135223E0,7.794364507E0
1.760339292E0,7.735913086E-1,1.748364258E0,7.053182831E0,7.307708884E0
1.770295292E0,5.234614563E-1,2.264640656E0,7.538024597E0,7.888245941E0
1.780251292E0,4.534071350E-1,2.595452728E0,7.786657562E0,8.220339950E0
1.790207292E0,9.786648560E-1,2.689756622E0,6.771768036E0,7.351830923E0
1.800162292E0,7.722441101E-1,3.072959747E0,6.419400787E0,7.158781254E0
1.810118292E0,8.361611938E-1,3.337010651E0,6.506519623E0,7.360000219E0
1.820074292E0,1.145867157E0,2.939437408E0,6.503076782E0,7.227953476E0
1.830030292E0,1.105900269E0,2.410437469E0,7.010521545E0,7.495374343E0
1.839985292E0,8.265811157E-1,1.975292358E0,7.952662354E0,8.235888219E0
1.849941292E0,4.897814941E-1,1.681303711E0,8.840615845E0,9.012389061E0
1.859897292E0,2.013313293E-1,1.240919495E0,9.604926453E0,9.686848180E0
1.869853292E0,-7.738906860E-2,1.073717194E0,1.009081604E1,1.014807499E1
1.879808292E0,-3.032693481E-1,1.397643585E0,1.018646713E1,1.028637412E1
1.889764292E0,-3.444337463E-1,1.770218811E0,9.940378876E0,1.010264527E1
1.899720292E0,-2.851570129E-1,1.838925934E0,9.507329407E0,9.687738413E0
1.909676292E0,-6.066883850E-1,1.872605896E0,9.335337067E0,9.540610137E0
1.919631292E0,-9.756710815E-1,1.913171539E0,9.388626251E0,9.631119472E0
1.929587292E0,-1.100661163E0,1.822160797E0,9.605824585E0,9.838881589E0
1.939543292E0,-1.111588440E0,1.675465851E0,9.797126770E0,1.000132529E1
1.949499292E0,-9.898915100E-1,1.451980591E0,9.786199493E0,9.942727662E0
1.959454292E0,-7.976911926E-1,1.287622375E0,9.554481354E0,9.673799489E0
1.969410292E0,-5.165757751E-1,1.358574829E0,9.016649780E0,9.133047101E0
1.979366292E0,-1.345701599E-1,1.483265533E0,8.432714081E0,8.563226760E0
1.989321292E0,3.782633972E-1,1.560055847E0,8.262068939E0,8.416569408E0
1.999277292E0,9.764195251E-1,1.745669861E0,7.415130157E0,7.680163644E0
2.009233292E0,1.095272369E0,1.789528656E0,7.154821472E0,7.456105195E0
2.019189292E0,1.077609100E0,2.033820648E0,7.257058868E0,7.613315390E0
2.029145292E0,1.108594666E0,1.943558350E0,8.453371124E0,8.744477375E0
2.039100292E0,6.649172974E-1,1.281634827E0,9.916877747E0,1.002143538E1
2.049056292E0,1.330732727E-1,1.092727661E-1,1.124162292E1,1.124294156E1
2.059012292E0,-6.900650024E-2,2.716850281E-1,1.199350937E1,1.199678464E1
2.068967292E0,-6.448590088E-1,1.491348724E0,1.178229858E1,1.189380192E1
2.078923292E0,-1.108744354E0,2.180665283E0,1.062280975E1,1.090085786E1
2.088879292E0,-1.032552795E0,2.416724396E0,9.353150024E0,9.715355756E0
2.098835292E0,-7.285350037E-1,2.799927521E0,8.409662018E0,8.893411754E0
2.108790292E0,-8.762777710E-1,3.449277191E0,7.783065033E0,8.558123461E0
2.118746292E0,-1.121318207E0,3.660637665E0,7.322472839E0,8.262943248E0
2.128702292E0,-1.150507507E0,3.744463348E0,7.085814972E0,8.096508328E0
2.138658292E0,-9.849517822E-1,4.057163086E0,6.934629364E0,8.094429364E0
2.148613292E0,-5.465135193E-1,4.491859131E0,6.791826324E0,8.161150673E0
2.158569292E0,4.101470947E-2,4.722828827E0,6.466702423E0,8.007810847E0
2.168525292E0,-1.248403931E-1,4.647535400E0,6.604865112E0,8.077091901E0
2.178481292E0,-5.650749207E-1,4.732857971E0,7.067403259E0,8.524520108E0
2.188436292E0,-9.367520142E-1,4.958139496E0,7.453899536E0,9.001181583E0
2.198392292E0,-1.132395172E0,5.116959229E0,7.692653046E0,9.308195392E0
2.208348292E0,-1.253343658E0,4.695884857E0,7.869884491E0,9.249718202E0
2.218304292E0,-1.083746338E0,5.295537872E0,7.896080017E0,9.568976284E0
2.228259292E0,-6.478527832E-1,5.533692627E0,8.902736664E0,1.050238961E1
2.238215292E0,-5.777984619E-2,5.096152496E0,1.000489471E1,1.122818004E1
2.248171292E0,1.637594604E-1,4.874014435E0,1.075543396E1,1.180941123E1
2.258127292E0,-4.822970581E-1,4.375251617E0,1.067056046E1,1.154280285E1
2.268082292E0,-1.715133362E0,3.902684326E0,9.798623657E0,1.068576871E1
2.278038292E0,-2.571352844E0,3.852837982E0,8.553812256E0,9.727482720E0
2.287994292E0,-2.708168335E0,4.106410675E0,7.392676849E0,8.879665273E0
2.297950292E0,-2.356100464E0,4.366719360E0,6.664590912E0,8.308803728E0
2.307905292E0,-1.774110718E0,4.643793182E0,6.614894257E0,8.274606334E0
2.317861292E0,-9.859996033E-1,4.547842712E0,7.028933258E0,8.429766978E0
2.327817292E0,-2.588117981E-1,3.922293549E0,7.420818329E0,8.397613643E0
2.337773292E0,1.242416382E-2,3.298989716E0,7.482939148E0,8.177888835E0
2.347728292E0,-2.469863892E-2,3.188070374E0,7.167545013E0,7.844622633E0
2.357684292E0,5.179229736E-2,3.437002716E0,6.392456818E0,7.258042042E0
2.367640292E0,3.088078308E-1,3.796255646E0,5.611081696E0,6.781678037E0
2.377596292E0,3.032693481E-1,3.840114441E0,4.768783264E0,6.130232054E0
2.387551292E0,-4.664300537E-1,3.728296967E0,3.855382690E0,5.383468302E0
2.397507292E0,-1.050814819E0,3.618724823E0,3.767814789E0,5.328771848E0
2.407463292E0,-1.159788208E0,3.470532990E0,4.372407532E0,5.701548521E0
2.417419292E0,-1.212478638E0,3.497476959E0,5.376369781E0,6.527465171E0
2.427374292E0,-8.870553589E-1,3.757186890E0,6.424490204E0,7.495158098E0
2.437330292E0,-3.891906738E-2,4.144132233E0,7.480843506E0,8.552097182E0
2.447286292E0,7.720944214E-1,4.688400421E0,8.464298401E0,9.706779884E0
2.457242292E0,9.267228699E-1,5.202730865E0,9.100475464E0,1.052358672E1
2.467197292E0,2.375559998E-1,5.150040436E0,9.403894501E0,1.072439188E1
2.477153292E0,-8.592132568E-1,5.094805298E0,1.015353561E1,1.139252272E1
2.487109292E0,-7.102729797E-1,5.788612518E0,1.243464203E1,1.373436729E1
2.497064292E0,9.346563721E-1,7.202572174E0,1.652144348E1,1.804740212E1
2.507020292E0,3.092419281E0,9.169032898E0,2.050945038E1,2.267756107E1
2.516976292E0,4.394411774E0,1.063523392E1,2.292123505E1,2.564765236E1
2.526932292E0,3.594924316E0,1.087024521E1,2.281645294E1,2.552795011E1
2.536887292E0,1.109792175E0,1.022448807E1,2.135489227E1,2.370238846E1
2.546843292E0,-1.138233032E0,8.889114990E0,1.973795471E1,2.167714917E1
2.556799292E0,-2.244582367E0,7.682025146E0,1.805695038E1,1.975107889E1
2.566755292E0,-2.781366119E0,7.510182495E0,1.663026718E1,1.845818586E1
2.576710292E0,-3.127147064E0,7.940687256E0,1.480271759E1,1.708666178E1
2.586666292E0,-3.353027344E0,8.468489685E0,1.307126816E1,1.593160887E1
2.596622292E0,-3.134781189E0,8.976383514E0,1.196716415E1,1.528448010E1
2.606578292E0,-2.809058533E0,8.954978027E0,1.059751236E1,1.415590723E1
2.616533292E0,-2.864293671E0,8.619974670E0,8.747509460E0,1.261059330E1
2.626489292E0,-2.519710236E0,8.527317352E0,7.230863342E0,1.146077945E1
2.636445292E0,-1.437909851E0,8.381520538E0,6.477030945E0,1.068968667E1
2.646401292E0,1.113684082E-1,7.917784882E0,6.425687714E0,1.019770479E1
2.656356292E0,1.563798065E0,7.344327393E0,6.667434998E0,1.004187725E1
2.666312292E0,2.391576691E0,6.764582977E0,7.112160187E0,1.010257613E1
2.676268292E0,2.745141449E0,6.059399414E0,6.951244812E0,9.621430625E0
2.686224292E0,2.788251801E0,5.220843201E0,6.057004395E0,8.468698487E0
2.696179292E0,2.619253235E0,4.328249359E0,4.790787506E0,6.967486990E0
2.706135292E0,2.171983337E0,3.403921509E0,3.582949219E0,5.398306990E0
2.716091292E0,1.334624634E0,2.329006805E0,2.881507874E0,3.938093858E0
2.726047292E0,6.358776855E-1,1.265468445E0,2.785407715E0,3.124779505E0
2.736002292E0,2.884501648E-1,3.815565491E-1,2.899470520E0,2.938659251E0
2.745958292E0,-3.667373657E-2,-3.192860413E-1,2.893333282E0,2.911127964E0
2.755914292E0,-3.900888062E-1,-9.349557495E-1,2.661764832E0,2.848035033E0
2.765870292E0,-6.228547668E-1,-9.583071899E-1,1.734443207E0,2.077160073E0
2.775825292E0,-7.978408813E-1,-7.743397522E-1,8.869056702E-1,1.422235491E0
2.785781292E0,-6.411167908E-1,-5.396278381E-1,3.570075989E-1,9.108695674E-1
2.795737292E0,-4.192781067E-1,-7.439529419E-2,-4.535568237E-2,4.282358328E-1
2.805693292E0,-2.543211365E-1,3.315605164E-1,-7.349716187E-2,4.242799185E-1
2.815648292E0,-1.615141296E-1,6.677613831E-1,6.706054688E-2,6.902819683E-1
2.825604292E0,-1.287322998E-2,8.255332947E-1,-9.984237671E-2,8.316486282E-1
2.835560292E0,2.148033142E-1,7.479945374E-1,-2.522254944E-1,8.180794532E-1
2.845515292E0,4.317022705E-1,8.077203369E-1,-1.010398865E-1,9.214054763E-1
2.855471292E0,5.337899780E-1,8.952882385E-1,2.662962341E-1,1.075818969E0
2.865427292E0,6.165678406E-1,7.665559387E-1,8.090675354E-1,1.273716682E0
2.875383292E0,3.101550293E-1,6.879693604E-1,1.970502319E0,2.110065727E0
2.885338292E0,3.930825806E-1,5.292993164E-1,2.566113739E0,2.649454926E0
2.895294292E0,4.403842163E-1,4.510121155E-1,3.081791382E0,3.145598243E0
2.905250292E0,4.805007935E-2,7.463479614E-1,3.848197632E0,3.920200136E0
2.915206292E0,-3.447331238E-1,1.266366577E0,4.876110077E0,5.049650950E0
2.925161292E0,-5.685177612E-1,2.045196991E0,5.923781433E0,6.292632966E0
2.935117292E0,-6.628216553E-1,3.026107178E0,6.681206360E0,7.364453518E0
2.945073292E0,-6.441105652E-1,4.056264954E0,7.046446838E0,8.156014765E0
2.955029292E0,-4.617897034E-1,5.413043518E0,7.582033081E0,9.327460292E0
2.964984292E0,-3.558100891E-1,7.218888245E0,8.303383026E0,1.100841124E1
2.974940292E0,-6.704557800E-1,9.156758423E0,8.876391449E0,1.277051530E1
2.984896292E0,-9.086105347E-1,1.077100159E1,9.682914276E0,1.451202526E1
2.994852292E0,-1.661245422E0,1.153186935E1,1.181822388E1,1.659560673E1
3.004807292E0,-2.903212738E0,1.115570160E1,1.611713425E1,1.981515427E1
3.014763292E0,-3.252436523E0,1.024843826E1,1.970262817E1,2.244554270E1
3.024719292E0,-3.118016052E0,9.813143463E0,1.834345459E1,2.103573472E1
3.034675292E0,-4.361779633E0,1.251008514E1,1.318203781E1,1.868939466E1
3.044630292E0,-5.250182190E0,1.670196808E1,8.838071136E0,1.961202825E1
3.054586292E0,-3.866609344E0,1.999497025E1,7.412585449E0,2.167246931E1
3.064542292E0,-1.580862579E0,2.073128906E1,9.798473969E0,2.298468109E1
3.074498292E0,1.248553619E0,1.841500580E1,1.472652603E1,2.361232504E1
3.084453292E0,3.891906738E0,1.544607971E1,2.048654800E1,2.595047140E1
3.094409292E0,4.785997467E0,1.351314926E1,2.493544647E1,2.876260533E1
3.104365292E0,4.136797485E0,1.167227737E1,2.624567184E1,2.902051762E1
3.114321292E0,3.628604279E0,9.462422791E0,2.572715012E1,2.765122904E1
3.124276292E0,3.716321869E0,7.766599274E0,2.318064560E1,2.472798906E1
3.134232292E0,4.456981659E0,6.413862305E0,1.920970322E1,2.073680334E1
3.144188292E0,4.825215912E0,5.337151337E0,1.462847992E1,1.630215684E1
3.154143292E0,4.861739960E0,4.416116638E0,1.028750702E1,1.220538415E1
3.164099292E0,4.485123138E0,3.195255432E0,6.371051331E0,8.421180553E0
3.174055292E0,3.472029877E0,1.709445190E0,3.173849945E0,5.005049230E0
3.184011292E0,2.294578400E0,7.334747314E-2,1.604962463E0,2.801138053E0
3.193966292E0,1.197060699E0,-1.309027863E0,1.292861481E0,2.194994094E0
3.203922292E0,7.963439941E-2,-1.967508545E0,8.494834900E-1,2.144540443E0
3.213878292E0,-7.836204529E-1,-2.335293732E0,-3.517684937E-2,2.463512784E0
3.223834292E0,-1.393003235E0,-2.207309875E0,-1.149309998E0,2.851944664E0
3.233789292E0,-1.750010834E0,-1.626966705E0,-1.974543915E0,3.099739062E0
3.243745292E0,-1.863025818E0,-1.145268402E0,-2.224524078E0,3.119457050E0
3.253701042E0,-1.616488495E0,-9.054670715E-1,-2.223476257E0,2.894261968E0
3.263657042E0,-1.096769257E0,-8.126600647E-1,-2.061513062E0,2.472479582E0
3.273612042E0,-4.248165894E-1,-6.906637573E-1,-2.061213684E0,2.214968941E0
3.283568042E0,2.677931213E-1,-5.725593567E-1,-2.321522369E0,2.406034805E0
3.293524042E0,5.930667114E-1,-5.523513794E-1,-2.584226074E0,2.708328742E0
3.303480042E0,7.738906860E-1,-6.176156616E-1,-2.761906586E0,2.934021794E0
3.313435042E0,8.529263306E-1,-9.108558655E-1,-2.698737946E0,2.973268947E0
3.323391042E0,5.107379150E-1,-1.362766113E0,-2.081122284E0,2.539498899E0
3.333347042E0,5.590873718E-1,-1.673968964E0,-1.126108246E0,2.093530645E0
3.343303042E0,6.604266357E-1,-1.806593170E0,-3.011737061E-1,1.946958609E0
3.353258042E0,2.848576355E-1,-1.704206085E0,4.547543335E-1,1.786690728E0
3.363214042E0,-3.689826965E-1,-1.240620117E0,1.171763306E0,1.745942654E0
3.373170042E0,-1.025218048E0,-6.036946106E-1,2.021097107E0,2.345283084E0
3.383126042E0,-1.576371918E0,3.141966248E-1,3.364253998E0,3.728521544E0
3.393081042E0,-2.066452789E0,1.746867371E0,4.884792023E0,5.584171008E0
3.403037042E0,-2.190544739E0,3.395089874E0,6.059848480E0,7.283329260E0
3.412993042E0,-2.579735413E0,5.002597046E0,6.735393677E0,8.777615848E0
3.422948042E0,-3.190166016E0,6.737040253E0,7.927215271E0,1.088143430E1
3.432904042E0,-2.947819977E0,8.358917542E0,9.561666412E0,1.303789130E1
3.442860042E0,-1.696422272E0,9.779463501E0,1.126632156E1,1.501485120E1
3.452816042E0,1.118174744E-1,1.140508301E1,1.378902557E1,1.789484976E1
3.462771042E0,1.824855194E0,1.235695358E1,1.656934387E1,2.075012180E1
3.472727042E0,1.753603363E0,1.289852737E1,1.883862488E1,2.289849166E1
3.482683042E0,-1.559756470E-1,1.306587936E1,1.969125183E1,2.363232808E1
3.492639042E0,-2.900967407E0,1.318533096E1,1.939980789E1,2.363516682E1
3.502594042E0,-5.530100098E0,1.421084839E1,1.820723785E1,2.374939429E1
3.512550042E0,-6.461463318E0,1.556792633E1,1.670391403E1,2.373039364E1
3.522506042E0,-5.947432251E0,1.679507446E1,1.682231781E1,2.450381303E1
3.532462042E0,-5.265600128E0,1.712618591E1,1.868998398E1,2.589108514E1
3.542417042E0,-3.843407593E0,1.615665207E1,2.193044540E1,2.750915527E1
3.552373042E0,-1.983375549E0,1.497186584E1,2.636826691E1,3.038710327E1
3.562329042E0,-3.559597778E-1,1.357901230E1,3.013084259E1,3.305123232E1
3.572285042E0,8.244854736E-1,1.213271988E1,3.139990356E1,3.367249043E1
3.582240042E0,1.988764343E0,1.079105988E1,3.000540344E1,3.194880894E1
3.592196042E0,3.182082825E0,9.695338440E0,2.653352325E1,2.842803361E1
3.602152042E0,4.130211182E0,9.314380646E0,2.147569107E1,2.377018381E1
3.612107042E0,4.656666412E0,8.591384125E0,1.595097977E1,1.870642079E1
3.622063042E0,4.484524384E0,6.923103333E0,1.091664871E1,1.368259982E1
3.632019042E0,3.754492493E0,4.890629883E0,6.459068298E0,8.929391794E0
3.641975042E0,2.791844330E0,2.994373169E0,2.425855408E0,4.758722507E0
3.651930042E0,1.075064392E0,1.332828369E0,-4.254153442E-1,1.764418636E0
3.661886042E0,5.066963196E-1,-4.722679138E-1,-1.759441223E0,1.890875871E0
3.671842042E0,-4.391867065E-1,-1.936972046E0,-2.643053741E0,3.306127455E0
3.681798042E0,-1.310524750E0,-3.130140839E0,-2.896626434E0,4.461580604E0
3.691753042E0,-1.393152924E0,-3.373684387E0,-2.669848022E0,4.522246110E0
3.701709042E0,-1.580263824E0,-2.954855347E0,-2.569107513E0,4.222406576E0
3.711665042E0,-1.581161957E0,-2.498304749E0,-2.662213898E0,3.978565393E0
3.721621042E0,-1.683249664E0,-1.990859985E0,-2.700683899E0,3.753737662E0
3.731576042E0,-1.576970673E0,-1.440604248E0,-2.808759155E0,3.528640686E0
3.741532042E0,-1.177601166E0,-9.641450500E-1,-3.270997925E0,3.607734415E0
3.751488042E0,-7.593708801E-1,-6.646179199E-1,-3.589685211E0,3.728833736E0
3.761444042E0,-2.883004761E-1,-5.038522339E-1,-3.527414703E0,3.574862057E0
3.771399042E0,2.354603577E-1,-3.116519165E-1,-3.196902008E0,3.220675542E0
3.781355042E0,4.775070190E-1,-1.034349060E-1,-2.939886475E0,2.980208754E0
3.791311042E0,3.321592712E-1,-6.122268677E-2,-2.602039032E0,2.623868351E0
3.801266042E0,1.017883301E-2,3.367996216E-2,-1.833686829E0,1.834024355E0
3.811222042E0,-4.731660461E-1,1.089733887E-1,-6.216572571E-1,7.888086282E-1
3.821178042E0,-6.737489319E-1,1.043330383E-1,6.518943787E-1,9.432864289E-1
3.831134042E0,-7.779322815E-1,1.835183716E-1,2.086511078E0,2.234364810E0
3.841089042E0,-5.807922363E-1,3.203338623E-1,3.208577728E0,3.276416403E0
3.851045042E0,-2.905458069E-1,6.038442993E-1,3.626658325E0,3.688047642E0
3.861001042E0,-4.508624268E-1,1.659299469E0,3.966302032E0,4.322973915E0
3.870957042E0,-8.428971863E-1,2.829565887E0,4.367916870E0,5.272154831E0
3.880912042E0,-1.634151764E0,3.782633972E0,4.802463226E0,6.327908406E0
3.890868042E0,-1.792821808E0,4.887187042E0,5.783523102E0,7.781256113E0
3.900824042E0,-9.416917419E-1,6.250402222E0,7.640411682E0,9.916158628E0
3.910780042E0,3.179388428E-1,7.807464294E0,9.876012726E0,1.259337966E1
3.920735042E0,1.460662537E0,9.207502899E0,1.300780014E1,1.600357801E1
3.930691042E0,1.606010284E0,1.082952988E1,1.647968033E1,1.978478835E1
3.940647042E0,6.906637573E-1,1.192644882E1,1.810350357E1,2.168995250E1
3.950602042E0,-1.144819336E0,1.223241257E1,1.853909775E1,2.224051874E1
3.960558042E0,-8.840615845E-1,1.422192535E1,1.882874542E1,2.361284354E1
3.970514042E0,-4.540058899E-1,1.605411530E1,1.829480576E1,2.434421198E1
3.980470042E0,2.046244812E-1,1.748484009E1,1.703936646E1,2.441519022E1
3.990425042E0,2.714904327E0,1.848191666E1,1.829959579E1,2.615008901E1
4.000381042E0,5.347030792E0,1.785127808E1,2.112586853E1,2.817021811E1
4.010337042E0,6.195167084E0,1.682635941E1,2.355396927E1,2.960229610E1
4.020293042E0,6.032605133E0,1.553379730E1,2.513108963E1,3.015398563E1
4.030248042E0,5.425317993E0,1.433733536E1,2.530427948E1,2.958546637E1
4.040204042E0,5.039719849E0,1.316961365E1,2.432636307E1,2.811777800E1
4.050160042E0,5.193450165E0,1.181867294E1,2.304383011E1,2.641346363E1
4.060116042E0,5.354814606E0,1.041579025E1,2.130459686E1,2.431149057E1
4.070071042E0,5.811065826E0,1.039333694E1,1.858175903E1,2.206970112E1
4.080027042E0,5.428461456E0,9.478589172E0,1.459330307E1,1.822844867E1
4.089983042E0,4.192332001E0,7.485783234E0,1.060125458E1,1.363815225E1
4.099939042E0,2.983595581E0,5.659580841E0,7.473808136E0,9.838216604E0
4.109894042E0,2.245031433E0,3.879183197E0,5.083129578E0,6.776904508E0
4.119850042E0,1.434916077E0,1.966610413E0,2.879412231E0,3.770617385E0
4.129806042E0,2.321672058E-1,-7.499404907E-2,7.973918152E-1,8.338821414E-1
4.139761042E0,-6.089337158E-1,-1.862726440E0,-4.330494690E-1,2.007008197E0
4.149717042E0,-1.052760773E0,-2.581232300E0,-1.209335175E0,3.038676849E0
4.159673042E0,-1.285377045E0,-2.765948181E0,-1.804347839E0,3.543774064E0
4.169629042E0,-1.522783356E0,-2.633174286E0,-2.084116058E0,3.687277548E0
4.179584042E0,-2.132465515E0,-2.477647705E0,-2.193089447E0,3.936469058E0
4.189540042E0,-3.270548859E0,-2.795436859E0,-2.153421936E0,4.811255876E0
4.199496042E0,-4.372108154E0,-2.859204254E0,-2.019001465E0,5.600602253E0
4.209452042E0,-4.443060608E0,-2.176024933E0,-2.261048126E0,5.439504638E0
4.219407042E0,-3.796854401E0,-1.219514008E0,-3.130889282E0,5.070087322E0
4.229363042E0,-2.812950439E0,-5.072950745E-1,-3.710184631E0,4.683535894E0
4.239319042E0,-1.498533783E0,-5.399272156E-1,-3.704646149E0,4.032558491E0
4.249275042E0,-3.038681030E-1,-7.027885437E-1,-2.862796783E0,2.963419138E0
4.259230542E0,4.123924255E-1,-9.041198730E-1,-1.387315063E0,1.706500320E0
4.269186542E0,8.439450073E-1,-1.138682098E0,-8.367599487E-2,1.419803426E0
4.279142542E0,7.328759766E-1,-1.343755646E0,7.225474548E-1,1.692590103E0
4.289097542E0,5.673202515E-2,-1.475781097E0,1.346450043E0,1.998518473E0
4.299053542E0,-6.023474121E-1,-1.423839111E0,2.088157654E0,2.598180634E0
4.309009542E0,-1.182690582E0,-1.368154907E0,2.788251801E0,3.323394796E0
4.318965542E0,-1.597328339E0,-1.141526184E0,3.582051086E0,4.084804749E0
4.328920542E0,-1.810185699E0,-7.361691284E-1,4.530927887E0,4.934371770E0
4.338876542E0,-1.994452515E0,-1.606159973E-1,5.466332703E0,5.821033546E0
4.348832542E0,-2.072290649E0,6.959028625E-1,6.175408173E0,6.550903405E0
4.358788542E0,-2.155667267E0,1.791624298E0,6.372099152E0,6.961355226E0
4.368743542E0,-2.309247894E0,2.746638336E0,6.121819611E0,7.096007563E0
4.378699542E0,-2.677182770E0,3.350332947E0,5.894442444E0,7.289478044E0
4.388655542E0,-2.750979309E0,3.780089264E0,6.284980316E0,7.833130892E0
4.398611542E0,-1.306932220E0,4.054019623E0,8.025111694E0,9.085458967E0
4.408566542E0,-5.867797852E-2,5.469775543E0,9.961784363E0,1.136481567E1
4.418522542E0,1.862576752E0,7.056625671E0,1.189561295E1,1.395602971E1
4.428478542E0,5.788163452E0,7.636669464E0,1.525223282E1,1.801255569E1
4.438433542E0,7.611521759E0,8.531059570E0,1.852906860E1,2.177247400E1
4.448389542E0,7.543114014E0,9.359137573E0,2.171833649E1,2.482293627E1
4.458345542E0,6.895261230E0,9.831704865E0,2.396456543E1,2.680498917E1
4.468301542E0,5.655838623E0,1.058419006E1,2.387669815E1,2.672284237E1
4.478256542E0,4.297563171E0,1.241967316E1,2.217398895E1,2.577601825E1
4.488212542E0,5.212310944E0,1.344668747E1,2.084535187E1,2.534778657E1
4.498168542E0,6.394851837E0,1.358035950E1,2.065090622E1,2.552998672E1
4.508124542E0,7.422165527E0,1.346000977E1,2.188434128E1,2.674293920E1
4.518079542E0,9.246721344E0,1.311153442E1,2.427322357E1,2.909645293E1
4.528035542E0,1.102217926E1,1.283386185E1,2.587474319E1,3.091437822E1
4.537991542E0,1.160461807E1,1.249287094E1,2.601545059E1,3.110534768E1
4.547947542E0,1.105615860E1,1.176074341E1,2.487018219E1,2.964927808E1
4.557902542E0,9.657916260E0,1.080812439E1,2.292168411E1,2.712000188E1
4.567858542E0,8.060887299E0,9.814490662E0,2.085089035E1,2.441437608E1
4.577814542E0,6.592141571E0,8.858428802E0,1.889745255E1,2.188702365E1
4.587769542E0,5.434299316E0,7.937094727E0,1.689491684E1,1.944138104E1
4.597725542E0,4.615052948E0,6.998247070E0,1.460153595E1,1.683683545E1
4.607681542E0,4.038901062E0,6.132896576E0,1.180205750E1,1.390013321E1
4.617637542E0,3.356170807E0,5.451214142E0,8.783883820E0,1.086904932E1
4.627592542E0,2.860850830E0,4.778213654E0,5.759123840E0,8.011448096E0
4.637548542E0,2.443967743E0,3.808081055E0,2.901117096E0,5.375029307E0
4.647504542E0,1.367705841E0,2.541714478E0,6.307882690E-1,2.954458596E0
4.657460542E0,7.077282715E-1,1.536554718E0,-5.451663208E-1,1.777381789E0
4.667415542E0,6.505471802E-1,1.164278870E0,-1.490151215E0,1.999826883E0
4.677371542E0,5.403762817E-2,1.065484314E0,-2.807262268E0,3.003148070E0
4.687327542E0,-2.351609802E-1,1.024768982E0,-3.474574585E0,3.630168137E0
4.697283542E0,-8.848100281E-1,8.439450073E-1,-3.554358673E0,3.758802673E0
4.707238542E0,-1.695224762E0,4.508624268E-1,-3.569327545E0,3.977079713E0
4.717194542E0,-2.384840698E0,2.679428101E-1,-3.425776062E0,4.182726399E0
4.727150542E0,-2.741698608E0,2.014810181E-1,-3.572620697E0,4.507895796E0
4.737105542E0,-2.929108887E0,3.608995056E-1,-3.599864044E0,4.654991779E0
4.747061542E0,-3.381168823E0,6.661148071E-1,-3.006647644E0,4.573394976E0
4.757017542E0,-3.032843170E0,7.080276489E-1,-2.839595032E0,4.214586669E0
4.766973542E0,-2.287393341E0,5.451663208E-1,-2.683320007E0,3.567853819E0
4.776928542E0,-1.343007202E0,5.542973328E-1,-1.928739166E0,2.414735731E0
4.786884542E0,-8.991801453E-1,4.830455017E-1,-5.698649597E-1,1.169018376E0
4.796840542E0,-1.013093262E0,2.246827698E-1,4.966671753E-1,1.150442779E0
4.806796542E0,-7.069798279E-1,-1.281335449E-1,1.612446899E0,1.765282891E0
4.816751542E0,-3.195854187E-1,-8.637039185E-2,2.652933197E0,2.673508787E0
4.826707542E0,-7.035369873E-2,3.321592712E-1,4.033661957E0,4.047926408E0
4.836663542E0,4.589456177E-1,8.282276917E-1,6.041287079E0,6.115042253E0
4.846619542E0,1.013542328E0,1.340013428E0,7.749085693E0,7.929138233E0
4.856574542E0,1.429976349E0,1.948049011E0,8.986562347E0,9.305806259E0
4.866530542E0,1.465901642E0,2.904859314E0,9.964478760E0,1.048226656E1
4.876486542E0,1.628613281E0,4.234544220E0,1.038764877E1,1.133521032E1
4.886441542E0,2.398612061E0,5.877826996E0,1.044108765E1,1.221959497E1
4.896397542E0,3.232228546E0,7.481292572E0,1.054227722E1,1.332503842E1
4.906353542E0,4.783153381E0,8.722511444E0,1.171119644E1,1.536596513E1
4.916309542E0,7.145241394E0,1.052446426E1,1.411654449E1,1.900251697E1
4.926264542E0,9.077273712E0,1.125644211E1,1.551658310E1,2.121010934E1
4.936220542E0,1.019455032E1,1.023661285E1,1.569770645E1,2.133389526E1
4.946176542E0,8.599766693E0,9.635313263E0,1.488010666E1,1.970311709E1
4.956132542E0,5.365592194E0,1.057535843E1,1.296109726E1,1.756752196E1
4.966087542E0,1.398841095E0,1.100301910E1,1.203272781E1,1.636489305E1
4.976043542E0,-4.278103638E-1,1.136915771E1,1.276335846E1,1.709807264E1
4.985999542E0,-1.659449158E0,1.196087723E1,1.408600800E1,1.855348961E1
4.995954542E0,-1.831291809E0,1.157542877E1,1.485061798E1,1.891784965E1
5.005910542E0,-5.087919617E-1,1.107876160E1,1.507889328E1,1.871819570E1
5.015866542E0,1.037791901E0,1.096020813E1,1.455528214E1,1.824991541E1
5.025822542E0,1.556163940E0,1.078267731E1,1.299507660E1,1.695758803E1
5.035777542E0,1.720073090E0,1.030052994E1,1.132470016E1,1.540481750E1
5.045733542E0,1.679806824E0,9.408834229E0,9.342671814E0,1.336538174E1
5.055689542E0,1.874402161E0,8.305179291E0,7.534881134E0,1.136942480E1
5.065645542E0,2.527344360E0,7.367229767E0,6.197262726E0,9.953371753E0
5.075600542E0,3.751349030E0,7.021748199E0,5.209017792E0,9.513749717E0
5.085556542E0,5.415139160E0,6.846163330E0,4.119283905E0,9.652055965E0
5.095512542E0,7.304959259E0,6.561455383E0,3.098706207E0,1.029646088E1
5.105468542E0,8.769663391E0,6.495592346E0,2.783012695E0,1.126254303E1
5.115423542E0,9.558672638E0,6.534661102E0,3.066523132E0,1.197804585E1
5.125379542E0,9.088500366E0,6.428831177E0,3.276835785E0,1.160466983E1
5.135335542E0,7.388186188E0,6.085894318E0,3.106939087E0,1.006362138E1
5.145290542E0,5.323679352E0,5.754483490E0,2.610571289E0,8.262610032E0
5.155246542E0,3.403173065E0,5.485343170E0,2.025438080E0,6.765572852E0
5.165202542E0,1.869462433E0,5.260810089E0,1.703906708E0,5.837320503E0
5.175158542E0,1.152752838E0,5.240751801E0,1.637295227E0,5.610263292E0
5.185113542E0,1.071471863E0,5.588628387E0,1.771416321E0,5.959759642E0
5.195069542E0,6.710545349E-1,5.745202789E0,2.007625122E0,6.122763094E0
5.205025542E0,-2.621049500E-1,5.326074371E0,2.253114624E0,5.788980284E0
5.214981542E0,-8.931925964E-1,4.657714233E0,2.451452179E0,5.338699531E0
5.224936542E0,-7.499404907E-1,3.990701294E0,2.936293945E0,5.010980911E0
5.234892542E0,-2.095642090E-1,3.564836884E0,3.873944092E0,5.268721096E0
5.244848542E0,3.073109436E-1,3.323688354E0,4.819976807E0,5.862893544E0
5.254802917E0,1.011296997E0,2.923420715E0,5.561534729E0,6.363943654E0
5.264758917E0,1.562750244E0,2.387385406E0,6.232140198E0,6.854295649E0
5.274714917E0,1.747017059E0,1.815724182E0,6.790179749E0,7.242614440E0
5.284670917E0,1.717977448E0,1.062789917E0,7.042854309E0,7.326852376E0
5.294625917E0,1.690135345E0,4.511618042E-1,6.830745392E0,7.051183381E0
5.304581917E0,1.903591461E0,-2.095642090E-3,6.681954803E0,6.947818711E0
5.314537917E0,1.796264648E0,-2.125579834E-1,6.591842194E0,6.835505182E0
5.324493917E0,1.244362335E0,-1.886077881E-1,6.014792175E0,6.145057805E0
5.334448917E0,1.017134857E0,-2.574645996E-2,5.212760010E0,5.311129175E0
5.344404917E0,1.302291870E0,2.390528870E-1,4.614005127E0,4.800224339E0
5.354360917E0,2.022294617E0,2.514770508E-1,4.097728729E0,4.576493960E0
5.364315917E0,2.337988129E0,1.730401611E-1,3.819008331E0,4.481177973E0
5.374271917E0,1.830243988E0,2.770738220E-1,2.939287720E0,3.473611270E0
5.384227917E0,1.931882629E0,4.769082642E-1,1.601220245E0,2.554117903E0
5.394183917E0,2.521805878E0,1.487456818E0,5.789959717E-1,2.984504817E0
5.404138917E0,3.299139404E0,2.925366669E0,-1.033750305E0,4.528877416E0
5.414094917E0,3.747307434E0,4.628225555E0,-1.691033478E0,6.190507170E0
5.424050917E0,3.487447815E0,6.201603699E0,-1.234931946E0,7.221304426E0
5.434006917E0,3.818708954E0,7.680378571E0,1.126707001E0,8.651024317E0
5.443961917E0,6.072871399E0,9.078171844E0,6.137237549E0,1.252831416E1
5.453917917E0,1.010578491E1,1.003198837E1,1.160551620E1,1.836996695E1
5.463873917E0,1.413241150E1,1.092548035E1,1.555714874E1,2.368788831E1
5.473828917E0,1.827684311E1,1.256457184E1,1.925999863E1,2.937446181E1
5.483784917E0,2.150712570E1,1.493668900E1,2.279953812E1,3.472002408E1
5.493740917E0,2.453203537E1,1.507679764E1,2.485940460E1,3.804103815E1
5.503696917E0,2.490730499E1,1.577060486E1,2.548345688E1,3.896783794E1
5.513651917E0,2.292048660E1,1.658266617E1,2.320654175E1,3.659066962E1
5.523607917E0,2.029419800E1,1.685569839E1,1.944411575E1,3.277259035E1
5.533563917E0,1.721764572E1,1.691587326E1,1.555699905E1,2.871609848E1
5.543519917E0,1.434092789E1,1.635708527E1,1.240126144E1,2.504012253E1
5.553474917E0,1.178544205E1,1.519624924E1,9.615404663E0,2.150066608E1
5.563430917E0,9.467063141E0,1.379501312E1,7.137607269E0,1.818991779E1
5.573386917E0,7.652536469E0,1.208197540E1,5.474116516E0,1.531343840E1
5.583342917E0,6.208339691E0,1.015967285E1,4.730013885E0,1.281153642E1
5.593297917E0,4.609065399E0,8.309819641E0,4.417164459E0,1.047892782E1
5.603253917E0,3.080893250E0,6.338419189E0,3.843407593E0,8.027405743E0
5.613209917E0,1.818418579E0,4.500840454E0,3.264112244E0,5.849670047E0
5.623164917E0,7.023394775E-1,3.001857605E0,3.156935120E0,4.412558121E0
5.633120917E0,-3.592529297E-1,1.605860596E0,3.281176758E0,3.670690921E0
5.643076917E0,-1.293609924E0,2.342628479E-1,3.532653809E0,3.769343265E0
5.653032917E0,-1.916015625E0,-8.047265625E-1,3.717070312E0,4.258557552E0
5.662987917E0,-2.316582642E0,-1.378782806E0,3.564088440E0,4.468816798E0
5.672943917E0,-2.618654480E0,-1.629661102E0,3.077899475E0,4.357362938E0
5.682899917E0,-2.855012970E0,-1.667831726E0,2.611918488E0,4.213653986E0
5.692855917E0,-3.406615906E0,-1.493743744E0,2.114652557E0,4.278791622E0
5.702810917E0,-3.890559540E0,-1.348695374E0,1.428479462E0,4.358438518E0
5.712766917E0,-4.081562347E0,-1.118474121E0,7.095245361E-1,4.291102495E0
5.722722917E0,-3.979175262E0,-7.216493225E-1,-6.810836792E-2,4.044657249E0
5.732677917E0,-3.458258514E0,-1.817221069E-1,-6.860234070E-1,3.530326188E0
5.742633917E0,-2.666105804E0,4.234693909E-1,-1.044827271E0,2.894669327E0
5.752589917E0,-1.647324371E0,9.410929871E-1,-1.164877625E0,2.226268958E0
5.762545917E0,-5.655239868E-1,1.202150116E0,-1.054257660E0,1.696007516E0
5.772500917E0,5.310955811E-1,1.325044556E0,-9.855505371E-1,1.734680216E0
5.782456917E0,1.897753601E0,1.471739502E0,-6.349795532E-1,2.484086336E0
5.792412917E0,3.535946960E0,1.491648102E0,2.215393066E-1,3.844088270E0
5.802368917E0,5.012925568E0,1.133742371E0,1.629960480E0,5.391805419E0
5.812323917E0,6.050118713E0,6.777905273E-1,3.437451782E0,6.991381208E0
5.822279917E0,6.401138763E0,1.498384094E-1,4.850064240E0,8.032443722E0
5.832235917E0,6.191873932E0,-2.667453003E-1,5.851481781E0,8.523514233E0
5.842190917E0,5.780828705E0,-2.561174011E-1,6.556815033E0,8.745021442E0
5.852146917E0,5.408702545E0,3.112028503E-1,6.995402985E0,8.847970013E0
5.862102917E0,5.105882263E0,1.394799500E0,6.694828033E0,8.534413965E0
5.872058917E0,5.714965668E0,2.648442535E0,5.176984406E0,8.153296755E0
5.882013917E0,7.218139801E0,4.169729004E0,3.933669891E0,9.217480185E0
5.891969917E0,9.474547577E0,5.860014038E0,3.810326385E0,1.177392897E1
5.901925917E0,1.215397568E1,7.606132965E0,4.032464447E0,1.489406435E1
5.911881917E0,1.557915298E1,9.220376129E0,4.623734894E0,1.868433215E1
5.921836917E0,1.853610397E1,1.090332642E1,5.984555054E0,2.232228879E1
5.931792917E0,1.955204132E1,1.250798950E1,7.670948181E0,2.444535881E1
5.941748917E0,1.898277512E1,1.361987732E1,9.139693909E0,2.508746328E1
5.951703917E0,1.825962891E1,1.450049606E1,1.057326279E1,2.560219365E1
5.961659917E0,1.821427322E1,1.541569290E1,1.226878693E1,2.683144553E1
5.971615917E0,1.911629745E1,1.609872253E1,1.411834076E1,2.870416767E1
5.981571917E0,2.101180573E1,1.667726944E1,1.625170441E1,3.136471253E1
5.991526917E0,2.279489777E1,1.704610245E1,1.776400955E1,3.355200453E1
6.001482917E0,2.269266037E1,1.708891342E1,1.777179337E1,3.350857258E1
6.011438917E0,2.065988754E1,1.693877563E1,1.674567719E1,3.153047379E1
6.021394917E0,1.761626678E1,1.667637131E1,1.525896881E1,2.865781472E1
6.031349917E0,1.449660416E1,1.579874634E1,1.397508865E1,2.559404268E1
6.041305917E0,1.158830200E1,1.417043243E1,1.323353073E1,2.258796658E1
6.051261917E0,8.813971252E0,1.221714432E1,1.265154099E1,1.967247300E1
6.061216917E0,6.160289612E0,1.033959869E1,1.195848221E1,1.696648950E1
6.071172917E0,3.885919189E0,8.293353882E0,1.107187592E1,1.436894300E1
6.081128917E0,2.109263763E0,6.253246307E0,9.889933777E0,1.188961198E1
6.091084917E0,6.728507996E-1,4.356241150E0,8.519533539E0,9.592289449E0
6.101039917E0,-2.880010986E-1,2.733765106E0,7.147187347E0,7.657591218E0
6.110995917E0,-9.750723267E-1,1.342109070E0,5.879623260E0,6.109172815E0
6.120951917E0,-1.805096283E0,6.975494385E-2,4.513414307E0,4.861496379E0
6.130906917E0,-2.757565613E0,-9.283694458E-1,2.989732819E0,4.171874910E0
6.140862917E0,-3.561394043E0,-1.569785614E0,1.501228180E0,4.171503380E0
6.150818917E0,-3.759881287E0,-1.910177765E0,3.314108276E-1,4.230285986E0
6.160774917E0,-3.785777435E0,-1.991458740E0,-5.932164001E-1,4.318555824E0
6.170729917E0,-3.683240662E0,-1.915117493E0,-1.507365417E0,4.416569629E0
6.180685917E0,-3.814966736E0,-1.725761261E0,-2.329904938E0,4.791730391E0
6.190641917E0,-4.108955383E0,-1.586401062E0,-3.310665436E0,5.510053384E0
6.200597917E0,-3.992647247E0,-1.372495880E0,-4.027225342E0,5.834682591E0
6.210552917E0,-3.348836060E0,-1.068627777E0,-4.411176910E0,5.640492001E0
6.220508917E0,-2.488275604E0,-8.422984314E-1,-4.626578979E0,5.320358558E0
6.230464917E0,-1.713037720E0,-5.761518860E-1,-4.562661896E0,4.907579118E0
6.240419917E0,-7.628137207E-1,-2.808160400E-1,-4.181105347E0,4.259387789E0
6.250375917E0,4.393363953E-1,3.742218018E-3,-3.432811432E0,3.460812737E0
6.260332292E0,1.909279633E0,6.586303711E-2,-2.258353729E0,2.958014236E0
6.270288292E0,2.902763672E0,-1.945953369E-2,-6.526428223E-1,2.975291290E0
6.280243292E0,3.441942444E0,-9.116043091E-2,9.933343506E-1,3.583572400E0
6.290199292E0,4.165537720E0,6.975494385E-2,2.504441986E0,4.860946400E0
6.300155292E0,5.174290009E0,6.042933655E-1,4.062102814E0,6.605991737E0
6.310111292E0,6.025120697E0,1.585502930E0,5.340145111E0,8.205671743E0
6.320066292E0,7.110513611E0,2.963836670E0,6.656507721E0,1.018100322E1
6.330022292E0,7.992180176E0,4.747527466E0,8.545579376E0,1.262699045E1
6.339978292E0,8.152347107E0,6.213429108E0,9.940977631E0,1.427902311E1
6.349933292E0,8.816815338E0,7.365882568E0,9.926158447E0,1.518292068E1
6.359889292E0,1.188154221E1,8.996292114E0,8.752748566E0,1.728337133E1
6.369845292E0,1.684297485E1,1.150432663E1,7.563471680E0,2.175411310E1
6.379801292E0,2.028237259E1,1.423330170E1,6.374793549E0,2.558514233E1
6.389756292E0,2.108141098E1,1.591565323E1,5.806275787E0,2.704527214E1
6.399712292E0,1.942016556E1,1.587598572E1,6.415359192E0,2.589105225E1
6.409668292E0,1.581416428E1,1.546284485E1,8.202343140E0,2.358952724E1
6.419623292E0,1.238210129E1,1.563753159E1,9.609716492E0,2.214035857E1
6.429579292E0,9.971813507E0,1.636082748E1,1.072295151E1,2.195667164E1
6.439535292E0,8.543483734E0,1.715717148E1,1.233719467E1,2.279399087E1
6.449491292E0,8.228388977E0,1.749980896E1,1.415351761E1,2.396396794E1
6.459446292E0,8.721912689E0,1.730476456E1,1.509026962E1,2.456100313E1
6.469402292E0,9.367969208E0,1.669463333E1,1.474194397E1,2.416184060E1
6.479358292E0,9.703721008E0,1.591161163E1,1.402149216E1,2.332260338E1
6.489314292E0,9.101373596E0,1.514789978E1,1.290915527E1,2.188470148E1
6.499269292E0,7.552245026E0,1.413600403E1,1.122994720E1,1.956974014E1
6.509225292E0,6.032605133E0,1.284673508E1,9.662107544E0,1.716936950E1
6.519181292E0,5.012476501E0,1.160596527E1,8.657396851E0,1.532233242E1
6.529136292E0,4.197271729E0,1.037447617E1,7.721992035E0,1.359691166E1
6.539092292E0,3.538940735E0,8.991951141E0,6.651118927E0,1.173101316E1
6.549048292E0,3.104843445E0,7.574099579E0,5.690267029E0,9.969261563E0
6.559004292E0,2.931204529E0,6.093079376E0,4.808750153E0,8.297087098E0
6.568959292E0,3.240611115E0,4.642296295E0,4.078718262E0,6.977708646E0
6.578915292E0,3.640729065E0,3.440146179E0,3.673211517E0,6.211440792E0
6.588871292E0,3.605252838E0,2.487078094E0,3.317401428E0,5.494411498E0
6.598827292E0,3.112776947E0,1.634750519E0,2.997067566E0,4.619978742E0
6.608782292E0,2.205663300E0,7.523355103E-1,2.736010437E0,3.593982808E0
6.618738292E0,1.025068359E0,7.274871826E-2,2.478545837E0,2.683141253E0
6.628694292E0,-1.190025330E-1,-4.535568237E-1,2.238894196E0,2.287470790E0
6.638649292E0,-1.102756805E0,-8.256829834E-1,2.073787537E0,2.489662569E0
6.648605292E0,-1.726958771E0,-9.157955933E-1,1.825903015E0,2.674881303E0
6.658561292E0,-1.844314728E0,-9.937834167E-1,1.560953979E0,2.612600165E0
6.668517292E0,-1.686991882E0,-1.023870850E0,1.426533508E0,2.435005334E0
6.678472292E0,-1.046922913E0,-9.434880066E-1,1.360221405E0,1.958677991E0
6.688428292E0,-9.355545044E-2,-7.674540710E-1,1.425485687E0,1.621649721E0
6.698384292E0,9.208850098E-1,-6.444099426E-1,1.459614716E0,1.842218362E0
6.708339292E0,1.895358582E0,-6.126759338E-1,1.610051880E0,2.561254187E0
6.718295292E0,2.650388489E0,-5.667214966E-1,1.794917450E0,3.250763149E0
6.728251292E0,3.306623840E0,-6.367758179E-1,1.819765778E0,3.827635321E0
6.738207292E0,3.733087006E0,-7.686515808E-1,1.840123444E0,4.232353734E0
6.748162292E0,4.004472656E0,-8.643026733E-1,1.967508545E0,4.544657329E0
6.758118292E0,4.417463837E0,-8.780740356E-1,2.340532837E0,5.075735880E0
6.768074292E0,4.800816650E0,-9.222322083E-1,2.998714142E0,5.735036117E0
6.778030292E0,4.537514191E0,-7.927514648E-1,3.657943268E0,5.882009764E0
6.787985292E0,3.746409302E0,-4.279600525E-1,4.092789001E0,5.565038569E0
6.797941292E0,2.812651062E0,2.656974792E-1,4.189787292E0,5.053307699E0
6.807897292E0,2.399959259E0,1.635648651E0,4.339625702E0,5.221829391E0
6.817852292E0,1.955533447E0,3.752845917E0,4.346960449E0,6.066632401E0
6.827808292E0,1.758393402E0,5.966442719E0,4.003424835E0,7.397147861E0
6.837764292E0,2.614163818E0,7.853269043E0,4.647086334E0,9.492265195E0
6.847720292E0,4.411176910E0,9.497150574E0,6.786437531E0,1.247838472E1
6.857675292E0,7.420968018E0,1.071097641E1,9.659562836E0,1.622044809E1
6.867631292E0,1.077923447E1,1.142409348E1,1.189426575E1,1.970216651E1
6.877587292E0,1.294582901E1,1.226863724E1,1.314551376E1,2.215668027E1
6.887542292E0,1.383737503E1,1.380683853E1,1.415486481E1,2.413424819E1
6.897498292E0,1.384815262E1,1.543260773E1,1.462339050E1,2.537282527E1
6.907454292E0,1.390129211E1,1.630783768E1,1.480032257E1,2.604306127E1
6.917410292E0,1.451306992E1,1.673430084E1,1.536569687E1,2.695868438E1
6.927365292E0,1.517379593E1,1.706780731E1,1.589798996E1,2.782625045E1
6.937321292E0,1.525028687E1,1.707708801E1,1.578961533E1,2.781205021E1
6.947277292E0,1.456441315E1,1.675765228E1,1.487786133E1,2.672623801E1
6.957233292E0,1.302291870E1,1.632849472E1,1.344384338E1,2.483854014E1
6.967188292E0,1.098625397E1,1.578437622E1,1.203362595E1,2.268595297E1
6.977144292E0,9.132957916E0,1.487486755E1,1.093835358E1,2.059903357E1
6.987100292E0,7.683372345E0,1.354608078E1,1.015877472E1,1.859384895E1
6.997055292E0,6.574927368E0,1.202823715E1,9.749076691E0,1.682119660E1
7.007011292E0,5.678142242E0,1.061053528E1,9.349108429E0,1.523911371E1
7.016967292E0,4.790188751E0,9.426647186E0,8.640182648E0,1.365504821E1
7.026923292E0,3.877087555E0,8.285121002E0,7.672445068E0,1.193907246E1
7.036878292E0,2.984493713E0,7.171287231E0,6.508615265E0,1.013393487E1
7.046834292E0,2.588716736E0,6.011049957E0,5.385800171E0,8.475908176E0
7.056790292E0,2.362537079E0,4.888833618E0,4.731361084E0,7.201947882E0
7.066746292E0,1.903890839E0,3.747906189E0,4.293222198E0,6.008606991E0
7.076701292E0,1.229992218E0,2.591860199E0,3.923940125E0,4.860856534E0
7.086657292E0,1.594184875E-1,1.574575653E0,3.507805481E0,3.848298589E0
7.096613292E0,-9.744735718E-1,7.310797119E-1,2.833308105E0,3.084106209E0
7.106568292E0,-2.047142944E0,1.672023010E-1,2.281854858E0,3.070116030E0
7.116524292E0,-3.067421265E0,-2.411485291E-1,1.766177216E0,3.547760954E0
7.126480292E0,-3.868255920E0,-5.346881104E-1,1.246607666E0,4.099186006E0
7.136436292E0,-4.201463013E0,-6.251000977E-1,7.303312683E-1,4.310037742E0
7.146391292E0,-4.064946899E0,-5.198689270E-1,2.877017212E-1,4.108141828E0
7.156347292E0,-3.513493652E0,-2.387535095E-1,8.202941895E-2,3.522551591E0
7.166303292E0,-2.712509308E0,-1.302291870E-1,2.739303589E-2,2.715771854E0
7.176258292E0,-1.732347565E0,-8.427474976E-2,2.514770508E-2,1.734578544E0
7.186214292E0,-8.400531006E-1,7.499404907E-2,1.040336609E-1,8.497860447E-1
7.196170292E0,-3.224295044E-1,-7.574249268E-2,1.586700439E-1,3.672518119E-1
7.206126292E0,6.935078430E-1,1.046324158E-1,3.968247986E-1,8.058355859E-1
7.216081292E0,1.370699615E0,1.005608826E0,9.044192505E-1,1.925627359E0
7.226037292E0,1.577120361E0,1.720671844E0,1.789528656E0,2.941161852E0
7.235993292E0,1.738784180E0,2.016756134E0,3.001857605E0,4.012707915E0
7.245948292E0,1.912423096E0,2.287692719E0,4.296814728E0,5.230058974E0
7.255904417E0,1.939816132E0,2.697390747E0,5.712720337E0,6.608628989E0
7.265860417E0,1.779649200E0,3.590583344E0,6.910080414E0,7.988031757E0
7.275816417E0,1.554068298E0,5.078189850E0,7.228468323E0,8.969609508E0
7.285771417E0,1.293759613E0,6.834936676E0,7.743547211E0,1.040926014E1
7.295727417E0,1.390308838E0,8.747958527E0,9.512119446E0,1.299769800E1
7.305683417E0,2.155068512E0,9.977202301E0,1.185040695E1,1.564036544E1
7.315639417E0,3.796405334E0,1.062146255E1,1.401819901E1,1.799272252E1
7.325594417E0,6.345155182E0,1.047401917E1,1.589379868E1,2.006436912E1
7.335550417E0,9.086853790E0,9.637708282E0,1.711645615E1,2.164322997E1
7.345506417E0,1.103160965E1,9.125772858E0,1.780307831E1,2.284569410E1
7.355461417E0,1.131033005E1,9.664801941E0,1.785397247E1,2.323997193E1
7.365417417E0,1.019589752E1,1.053284683E1,1.714444794E1,2.255724460E1
7.375373417E0,7.966882782E0,1.159488831E1,1.593765747E1,2.125844730E1
7.385329417E0,5.778433685E0,1.220561829E1,1.495959137E1,2.015333192E1
7.395284417E0,4.582121429E0,1.216924393E1,1.514206192E1,1.995916766E1
7.405240417E0,3.892056427E0,1.149444717E1,1.624197464E1,2.027491453E1
7.415196417E0,3.086880798E0,1.035920792E1,1.684447174E1,2.001445103E1
7.425151417E0,2.266287231E0,9.440119171E0,1.655841660E1,1.919461039E1
7.435107417E0,1.537003784E0,8.840316467E0,1.565040482E1,1.804019808E1
7.445063417E0,8.810678101E-1,8.399034119E0,1.418929321E1,1.651230137E1
7.455019417E0,4.185296631E-1,8.045020294E0,1.253717880E1,1.490229415E1
7.464974417E0,2.598596191E-1,7.717201996E0,1.114911530E1,1.356191379E1
7.474930417E0,4.049079895E-1,7.318131866E0,1.004905289E1,1.243794470E1
7.484886417E0,6.430627441E-1,6.723268890E0,9.235195312E0,1.144135948E1
7.494842417E0,8.822653198E-1,6.070925446E0,8.690478058E0,1.063761894E1
7.504797417E0,1.113235016E0,5.257966003E0,8.282875671E0,9.873779827E0
7.514753417E0,1.221010895E0,4.365671539E0,7.985893250E0,9.182834344E0
7.524709417E0,1.311123505E0,3.464096375E0,7.699838104E0,8.544385020E0
7.534664417E0,1.407972107E0,2.551893311E0,7.369924164E0,7.925296657E0
7.544620417E0,1.433119812E0,1.705104218E0,6.958130493E0,7.305942290E0
7.554576417E0,1.191821594E0,9.882449341E-1,6.420149231E0,6.604194342E0
7.564532417E0,7.668553162E-1,5.276527405E-1,5.705684967E0,5.781118009E0
7.574487417E0,1.269360352E-1,2.887495422E-1,4.887935486E0,4.898101915E0
7.584443417E0,-7.770341492E-1,8.307723999E-2,3.870950317E0,3.949042954E0
7.594399417E0,-1.690883789E0,-4.909790039E-2,2.843037872E0,3.308226554E0
7.604354417E0,-2.549947357E0,-1.707948303E-1,1.795216827E0,3.123172403E0
7.614310417E0,-3.356919250E0,-2.631527710E-1,7.435038757E-1,3.448326297E0
7.624266417E0,-3.952231293E0,-2.909948730E-1,-2.302212524E-1,3.969611068E0
7.634222417E0,-4.145629120E0,-2.302212524E-1,-1.013542328E0,4.273933864E0
7.644177417E0,-3.836521912E0,-1.562750244E-1,-1.461261292E0,4.108358166E0
7.654133417E0,-3.189118195E0,-3.442840576E-2,-1.643432465E0,3.587830882E0
7.664089417E0,-2.328258362E0,2.773731995E-1,-1.695224762E0,2.893356163E0
7.674044417E0,-1.235830078E0,6.965016174E-1,-1.689686279E0,2.206225330E0
7.684000417E0,5.179229736E-2,1.047072601E0,-1.467997284E0,1.803901189E0
7.693956417E0,1.246457977E0,1.362017670E0,-1.014141083E0,2.106473773E0
7.703912417E0,2.143991547E0,1.800006866E0,-2.935395813E-1,2.814762860E0
7.713867417E0,2.781515808E0,2.440824280E0,6.897656250E-1,3.764336591E0
7.723823417E0,3.090323639E0,3.063080292E0,1.777403870E0,4.700183569E0
7.733779417E0,3.063978424E0,3.551065521E0,2.768492889E0,5.446336659E0
7.743734417E0,2.609224091E0,4.330943756E0,3.823199615E0,6.338925735E0
7.753690417E0,2.158211975E0,5.509892120E0,5.141358490E0,7.839027824E0
7.763646417E0,2.030228119E0,7.045249329E0,6.707252197E0,9.937031567E0
7.773602417E0,1.818268890E0,8.698411560E0,7.843389587E0,1.185273073E1
7.783557417E0,2.549647980E0,9.811047821E0,9.203910370E0,1.369194399E1
7.793513417E0,4.292473755E0,1.069810318E1,1.203886505E1,1.666760374E1
7.803469417E0,6.643035736E0,1.134969818E1,1.634690643E1,2.098015545E1
7.813425417E0,8.571924591E0,1.138756943E1,2.176249466E1,2.601462670E1
7.823380417E0,8.676557007E0,1.017539017E1,2.695235229E1,3.008738109E1
7.833336417E0,7.407196655E0,8.970395966E0,3.066163879E1,3.279436933E1
7.843292417E0,5.181624756E0,9.738448792E0,3.142085999E1,3.330100692E1
7.853247417E0,3.754193115E0,1.146376099E1,3.016557037E1,3.248805039E1
7.863203417E0,3.662882996E0,1.308249481E1,2.882450912E1,3.186566661E1
7.873159417E0,3.738475800E0,1.394545029E1,2.776381485E1,3.129346897E1
7.883115417E0,3.542383575E0,1.381567017E1,2.553405167E1,2.924737626E1
7.893070417E0,2.801274719E0,1.322320221E1,2.192849945E1,2.575964489E1
7.903026417E0,1.429976349E0,1.260633499E1,1.805245972E1,2.206480945E1
7.912982417E0,-8.861572266E-2,1.182331329E1,1.422087753E1,1.849410576E1
7.922937417E0,-9.777667236E-1,1.072759186E1,1.081530945E1,1.526460525E1
7.932893417E0,-9.024732971E-1,9.654323730E0,8.149503021E0,1.266628692E1
7.942849417E0,-8.412506104E-2,8.714877319E0,6.308780823E0,1.075903709E1
7.952805417E0,1.033450928E0,7.709268494E0,4.981191559E0,9.236509669E0
7.962760417E0,2.081571350E0,6.731950836E0,3.697461090E0,7.957595105E0
7.972716417E0,2.697690125E0,5.597759399E0,2.446811829E0,6.678273012E0
7.982672417E0,3.036136322E0,4.212839355E0,1.407672729E0,5.380304983E0
7.992627417E0,3.307222595E0,2.711760864E0,8.758287048E-1,4.365597806E0
8.002583417E0,3.522175598E0,1.366208954E0,6.439608765E-1,3.832353515E0
8.012539417E0,3.634442139E0,3.978726196E-1,4.417314148E-1,3.682743396E0
8.022495417E0,3.685485992E0,-2.146536255E-1,4.519102478E-1,3.719288380E0
8.032450417E0,3.127446442E0,-6.480024719E-1,4.688250732E-1,3.228099348E0
8.042406417E0,1.936223602E0,-7.292834473E-1,2.405497742E-1,2.082949922E0
8.052362417E0,7.530839539E-1,-7.027885437E-1,3.592529297E-2,1.030697727E0
8.062317417E0,-4.728666687E-1,-9.451345825E-1,-2.692900085E-1,1.090595880E0
8.072273417E0,-1.874551849E0,-1.040785675E0,-7.294331360E-1,2.264785234E0
8.082229417E0,-2.924169159E0,-1.099613342E0,-9.571096802E-1,3.267410858E0
8.092185417E0,-3.469036102E0,-1.078806610E0,-5.733078003E-1,3.677868542E0
8.102140417E0,-3.425626373E0,-8.657995605E-1,2.409988403E-1,3.541554090E0
8.112096417E0,-2.789299622E0,-8.506809998E-1,8.387059021E-1,3.034349705E0
8.122052417E0,-1.912423096E0,-1.116827545E0,9.815089417E-1,2.422400806E0
8.132008417E0,-1.150058441E0,-1.326691132E0,1.063089294E0,2.052535657E0
8.141963417E0,-6.803352356E-1,-1.463806000E0,1.077758789E0,1.940914229E0
8.151919417E0,-3.312611389E-1,-1.508113861E0,9.496252441E-1,1.812713288E0
8.161875417E0,4.849914551E-2,-1.400637360E0,8.210426331E-1,1.624268508E0
8.171830417E0,3.459306335E-1,-1.126257935E0,7.219487000E-1,1.381786837E0
8.181786417E0,4.152365112E-1,-7.702981567E-1,4.926255798E-1,1.004221376E0
8.191742417E0,2.603086853E-1,-1.815724182E-1,2.680924988E-1,4.154548623E-1
8.201698417E0,-8.247848511E-2,8.174501038E-1,2.878514099E-1,8.705663713E-1
8.211653417E0,-5.318440247E-1,1.896556091E0,6.743476868E-1,2.081952900E0
8.221609417E0,-6.959028625E-1,3.183879089E0,1.439855804E0,3.562941424E0
8.231565417E0,-5.345384216E-1,4.940027161E0,2.864742737E0,5.735534031E0
8.241520417E0,-1.138532410E0,6.782845001E0,4.381388855E0,8.154741606E0
8.251476417E0,-2.683769073E0,9.094787292E0,5.625152435E0,1.102543025E1
8.261432083E0,-2.515219574E0,1.271051834E1,8.257278900E0,1.536444795E1
8.271388083E0,-2.362088013E0,1.487651413E1,1.138547379E1,1.888171459E1
8.281343083E0,-1.640139313E0,1.610261444E1,1.433464096E1,2.162096622E1
8.291299083E0,7.463479614E-1,1.824046875E1,1.828762070E1,2.584006204E1
8.301255083E0,3.498674469E0,1.865959717E1,2.185140976E1,2.894659562E1
8.311210083E0,5.406906281E0,1.741493546E1,2.388253601E1,3.004813037E1
8.321166083E0,4.873116302E0,1.634391266E1,2.483755005E1,3.012929863E1
8.331122083E0,3.285966797E0,1.635933060E1,2.619792114E1,3.106052716E1
8.341078083E0,2.793041840E0,1.723695557E1,2.645822983E1,3.170097231E1
8.351033083E0,3.583847351E0,1.843940506E1,2.533182220E1,3.153659520E1
8.360989083E0,4.968318329E0,1.944112198E1,2.455359055E1,3.170993881E1
8.370945083E0,5.486540680E0,1.928769104E1,2.321043365E1,3.067313784E1
8.380900083E0,4.891977081E0,1.807266769E1,2.071946365E1,2.792577540E1
8.390856083E0,3.915258179E0,1.641247009E1,1.764261200E1,2.441229566E1
8.400812083E0,2.612666931E0,1.449495758E1,1.460258377E1,2.074042614E1
8.410768083E0,1.123264160E0,1.247565674E1,1.161240189E1,1.708073801E1
8.420723083E0,-2.338137817E-1,1.053973251E1,8.753497009E0,1.370271288E1
8.430679083E0,-1.396595764E0,8.757837982E0,6.218368835E0,1.083135803E1
8.440635083E0,-2.150128784E0,7.044351196E0,4.168082428E0,8.462792015E0
8.450590083E0,-2.229763184E0,5.556744690E0,2.599494324E0,6.527375134E0
8.460546083E0,-1.661095734E0,4.359683990E0,1.301992493E0,4.843683308E0
8.470502083E0,-7.825726318E-1,3.129242706E0,-1.824705505E-1,3.230770085E0
8.480458083E0,1.296304321E-1,1.893412628E0,-1.645827484E0,2.512083505E0
8.490413083E0,3.953279114E-1,7.412585449E-1,-2.691852264E0,2.819896630E0
8.500369083E0,3.855981445E-1,-4.989125061E-1,-3.326682129E0,3.385913998E0
8.510325083E0,3.421884155E-1,-1.761087799E0,-3.648063812E0,4.065328120E0
8.520280083E0,-5.078938293E-1,-2.584675140E0,-3.656895447E0,4.506815509E0
8.530236083E0,-1.208137665E0,-3.024011536E0,-3.610641632E0,4.862198616E0
8.540192083E0,-1.785786438E0,-3.348237305E0,-3.265309753E0,5.006193568E0
8.550148083E0,-2.614014130E0,-3.453618164E0,-2.574047241E0,5.038478688E0
8.560103083E0,-3.338507538E0,-3.648363190E0,-1.947450256E0,5.314955225E0
8.570059083E0,-3.910917206E0,-3.725602570E0,-1.674118652E0,5.654914779E0
8.580015083E0,-4.249513092E0,-3.559298401E0,-1.658101959E0,5.785868019E0
8.589971083E0,-4.273463287E0,-3.380570068E0,-1.835333405E0,5.749712268E0
8.599926083E0,-4.239034882E0,-3.318299561E0,-1.822460175E0,5.683475151E0
8.609882083E0,-4.044439545E0,-3.238665161E0,-1.306183777E0,5.343459489E0
8.619838083E0,-3.378025360E0,-2.922223206E0,-6.005511475E-1,4.506784383E0
8.629793083E0,-2.875670013E0,-2.445015564E0,-2.267784119E-1,3.781402859E0
8.639749083E0,-2.346670074E0,-2.015259247E0,-1.916015625E-2,3.093298786E0
8.649705083E0,-1.496887207E0,-1.577868805E0,4.462220764E-1,2.220237694E0
8.659660083E0,-6.221063232E-1,-1.042881317E0,1.194066925E0,1.703060052E0
8.669616083E0,2.324665833E-1,-2.255809021E-1,2.121837616E0,2.146420817E0
8.679572083E0,1.087189178E0,1.094673615E0,2.457439728E0,2.901603117E0
8.689528083E0,2.205214233E0,2.817890167E0,2.712060242E0,4.489849169E0
8.699483083E0,3.481909332E0,4.769980774E0,3.572920074E0,6.902330551E0
8.709439083E0,4.090992737E0,6.816075897E0,4.916226654E0,9.346892356E0
8.719395083E0,3.474424896E0,8.541687469E0,6.012995911E0,1.100855000E1
8.729351083E0,2.095043335E0,1.018976028E1,6.660699005E0,1.235254356E1
8.739306083E0,1.124611359E0,1.216056198E1,7.100933533E0,1.412682822E1
8.749262083E0,2.227966919E0,1.437101532E1,7.917186127E0,1.655813257E1
8.759218083E0,5.867648163E0,1.650228333E1,9.299262085E0,1.983005106E1
8.769173083E0,1.084704346E1,1.847652786E1,1.143621826E1,2.428636493E1
8.779129083E0,1.554217987E1,2.005245071E1,1.447430054E1,2.920899709E1
8.789085083E0,1.801743256E1,2.021067169E1,1.731868561E1,3.214087736E1
8.799041083E0,1.685075867E1,1.925865143E1,1.921913361E1,3.200341887E1
8.808996083E0,1.204619980E1,1.863010849E1,2.009032196E1,2.993013379E1
8.818952083E0,6.318211212E0,1.852068604E1,2.009002258E1,2.804540268E1
8.828908083E0,2.466421051E0,1.853266113E1,1.963811234E1,2.711453886E1
8.838863083E0,8.472381592E-1,1.838132584E1,1.895508270E1,2.641753418E1
8.848819083E0,1.039139099E0,1.827998657E1,1.868190079E1,2.615819444E1
8.858775083E0,2.217937775E0,1.798270477E1,1.878383881E1,2.609845818E1
8.868731083E0,3.317700806E0,1.721240662E1,1.882320694E1,2.572133744E1
8.878686083E0,4.328099670E0,1.615021545E1,1.842683121E1,2.488192144E1
8.888642083E0,5.066065063E0,1.484522919E1,1.726434860E1,2.332602790E1
8.898598083E0,5.391638031E0,1.334265381E1,1.535162613E1,2.104206730E1
8.908553083E0,5.365143127E0,1.185010757E1,1.316347641E1,1.850640218E1
8.918509083E0,5.099295959E0,1.029933243E1,1.100975510E1,1.591520578E1
8.928465083E0,4.500241699E0,8.576564941E0,8.953181763E0,1.318973484E1
8.938421083E0,3.504961395E0,6.917265472E0,6.824608154E0,1.032998511E1
8.948376083E0,2.336940308E0,5.457501068E0,4.562661896E0,7.487555775E0
8.958332083E0,1.238075409E0,3.906426544E0,2.762804718E0,4.942275688E0
8.968288083E0,6.054908752E-1,2.292782135E0,1.522783356E0,2.818215440E0
8.978243083E0,5.869294739E-1,9.934840393E-1,1.046473846E0,1.557756160E0
8.988199083E0,7.182064819E-1,4.757107544E-1,5.718109131E-1,1.033967598E0
8.998155083E0,6.965016174E-1,2.785707092E-1,4.400848389E-2,7.514338892E-1
9.008111083E0,6.050418091E-1,-2.275268555E-2,-6.695576477E-1,9.027185159E-1
9.018066083E0,2.100132751E-1,2.900967407E-1,-7.744894409E-1,8.532851744E-1
9.028022083E0,-4.688250732E-1,1.452579346E0,2.865042114E-1,1.553019114E0
9.037978083E0,-1.200503540E0,1.149759064E0,7.723937988E-2,1.664067479E0
9.047933083E0,-1.791624298E0,5.143304443E-1,-3.592529297E-3,1.863992043E0
9.057889083E0,-2.486629028E0,2.860551453E-1,2.754272461E-2,2.503179992E0
9.067845083E0,-2.917882233E0,-8.741821289E-2,-2.918930054E-1,2.933748489E0
9.077801083E0,-2.967279510E0,-2.109114075E-1,-1.243763580E0,3.224310649E0
9.087756083E0,-2.750081177E0,-1.960922241E-2,-1.839225311E0,3.308486171E0
9.097712083E0,-2.277663574E0,5.643264771E-2,-1.822011108E0,2.917303632E0
9.107668083E0,-1.629661102E0,1.936972046E-1,-1.150956573E0,2.004498678E0
9.117623083E0,-9.580078125E-1,8.577163696E-2,-2.336640930E-1,9.898154630E-1
9.127579083E0,-2.396516418E-1,-1.630110168E-1,4.751119995E-1,5.565401272E-1
9.137535083E0,1.631607056E-1,-7.363188171E-1,7.801776123E-1,1.085110097E0
9.147491083E0,8.252339172E-1,-5.755531311E-1,1.069376221E0,1.468277197E0
9.157446083E0,1.599274292E0,-2.383044434E-1,1.769021301E0,2.396644244E0
9.167402083E0,2.344125366E0,-3.854484558E-1,3.105891266E0,3.910249966E0
9.177358083E0,2.642754364E0,-4.731660461E-1,5.063220978E0,5.730989740E0
9.187313083E0,1.837878113E0,-7.499404907E-1,6.459068298E0,6.757201342E0
9.197269083E0,8.042774963E-1,-6.813830566E-1,7.071145477E0,7.149282728E0
9.207225083E0,1.353186035E-1,9.006770325E-1,7.106771393E0,7.164895664E0
9.217181083E0,-8.062234497E-1,2.982996826E0,6.335126038E0,7.048552208E0
9.227136083E0,-2.001787262E0,5.183421021E0,6.047574005E0,8.212682696E0
9.237092083E0,-2.783012695E0,7.004384308E0,7.579188995E0,1.068881027E1
9.247048083E0,-2.715952148E0,8.116122437E0,1.041833496E1,1.348293525E1
9.257003667E0,-2.137554932E0,9.316326599E0,1.348141525E1,1.652608966E1
9.266959667E0,-1.276994476E0,1.052910461E1,1.575324097E1,1.899098101E1
9.276915667E0,-5.520520020E-1,1.169532944E1,1.718201981E1,2.079200079E1
9.286871667E0,-4.709207153E-1,1.377824799E1,1.863834137E1,2.318296040E1
9.296826667E0,4.315525818E-1,1.678878754E1,2.068503525E1,2.664432975E1
9.306782667E0,3.759731598E0,1.962972977E1,2.235286697E1,2.998520526E1
9.316738667E0,7.205416260E0,2.063893112E1,2.267903870E1,3.149956027E1
9.326693667E0,9.864935760E0,2.039329193E1,2.413071991E1,3.309826214E1
9.336649667E0,1.148366959E1,1.848610794E1,2.624522278E1,3.409431877E1
9.346605667E0,1.043539948E1,1.565354828E1,2.682796097E1,3.276691358E1
9.356560667E0,7.638765106E0,1.336705307E1,2.556668381E1,2.984433214E1
9.366516667E0,4.884342957E0,1.161599442E1,2.301838303E1,2.624183853E1
9.376472667E0,2.709515533E0,9.934541016E0,2.000170624E1,2.249677381E1
9.386428667E0,9.457333374E-1,8.636440430E0,1.713157471E1,1.920867946E1
9.396383667E0,-1.365161133E-1,7.472011871E0,1.456605972E1,1.637130703E1
9.406339667E0,-5.610333252E-1,6.409820709E0,1.247131577E1,1.403332736E1
9.416295667E0,-4.231700134E-1,5.356012115E0,1.074001602E1,1.200890848E1
9.426251667E0,2.477348328E-1,4.157454529E0,9.406289520E0,1.028708332E1
9.436206667E0,1.075812836E0,2.997666321E0,8.319848785E0,8.908605976E0
9.446162667E0,1.721869354E0,2.101180573E0,7.181765442E0,7.678381909E0
9.456118667E0,2.217039642E0,1.332528992E0,6.154302063E0,6.675801987E0
9.466073667E0,2.330503693E0,7.282356262E-1,5.227429504E0,5.769540173E0
9.476029667E0,2.069745941E0,2.549198914E-1,4.081113281E0,4.583046806E0
9.485985667E0,1.696721649E0,-1.562750244E-1,2.711162109E0,3.202137758E0
9.495940667E0,1.397793274E0,-3.879931641E-1,1.615740051E0,2.171400618E0
9.505896667E0,8.819659424E-1,-4.736151123E-1,5.992039490E-1,1.166713577E0
9.515852667E0,5.495072937E-1,-6.586303711E-1,-6.821315002E-1,1.095926829E0
9.525808667E0,7.155120850E-2,-9.535171509E-1,-2.078128510E0,2.287560411E0
9.535763667E0,-9.780661011E-1,-1.337319031E0,-3.182831268E0,3.588237781E0
9.545719667E0,-1.997895355E0,-1.677561493E0,-3.355721741E0,4.250490185E0
9.555675667E0,-2.569406891E0,-2.419568481E0,-4.007765808E0,5.340257501E0
9.565630667E0,-2.991529083E0,-2.527793427E0,-4.873116302E0,6.251899580E0
9.575586667E0,-3.266656952E0,-1.929487610E0,-5.445076904E0,6.636477422E0
9.585542667E0,-3.331472168E0,-1.586550751E0,-6.116580505E0,7.143417051E0
9.595498667E0,-3.125500488E0,-1.743424530E0,-6.509962463E0,7.428855475E0
9.605453667E0,-2.759062500E0,-1.793420563E0,-6.351142731E0,7.153027134E0
9.615409667E0,-2.082170105E0,-1.705253906E0,-5.761818237E0,6.359392473E0
9.625365667E0,-1.352437592E0,-1.826651459E0,-3.968846741E0,4.573563976E0
9.635320667E0,-1.111738129E0,-2.069745941E0,-2.431094513E0,3.380832805E0
9.645276667E0,-4.019142151E-1,-2.493664398E0,-1.501976624E0,2.938678435E0
9.655232667E0,9.475296021E-2,-2.452350311E0,6.454577637E-1,2.537639828E0
9.665188667E0,1.347198486E-2,-2.298619995E0,2.257605286E0,3.221896492E0
9.675143667E0,-3.007246399E-1,-1.933379517E0,3.697610779E0,4.183385846E0
9.685099667E0,-8.403524780E-1,-1.202599182E0,4.897964630E0,5.112973166E0
9.695055667E0,-1.748513947E0,-1.868115234E-1,6.105653229E0,6.353833561E0
9.705010667E0,-3.216062164E0,1.426084442E0,7.233707428E0,8.043835891E0
9.714966667E0,-5.175786896E0,3.763024750E0,7.666906586E0,9.986520007E0
9.724922667E0,-6.506070557E0,5.974525909E0,8.633746033E0,1.235174014E1
9.734878667E0,-6.770720215E0,8.167315979E0,1.080587906E1,1.514314118E1
9.744833667E0,-4.951702881E0,1.065574127E1,1.386072647E1,1.817096370E1
9.754789667E0,-2.150577850E0,1.258418106E1,1.784199738E1,2.193908541E1
9.764745667E0,1.089434509E0,1.304746765E1,2.260359558E1,2.612174980E1
9.774700667E0,5.112917633E0,1.348800156E1,2.749796768E1,3.105167209E1
9.784656667E0,1.044228516E1,1.488953705E1,3.184313187E1,3.667048786E1
9.794612667E0,1.474074646E1,1.656889481E1,3.496743484E1,4.140699676E1
9.804568667E0,1.573797272E1,1.706616074E1,3.656206879E1,4.330961211E1
9.814523667E0,1.421578812E1,1.660736481E1,3.748669601E1,4.339522526E1
9.824479667E0,1.170999893E1,1.608330460E1,3.695470230E1,4.196959356E1
9.834435667E0,9.294172668E0,1.551029617E1,3.410702408E1,3.860362709E1
9.844390667E0,7.432344360E0,1.463192276E1,3.023816940E1,3.440464787E1
9.854346667E0,6.311924286E0,1.366059265E1,2.563569031E1,2.972609623E1
9.864302667E0,5.630541229E0,1.251966522E1,2.068338867E1,2.482433441E1
9.874258667E0,4.901557159E0,1.106124802E1,1.620515121E1,2.022333791E1
9.884213667E0,4.016747131E0,9.477092285E0,1.229902405E1,1.603794027E1
9.894169667E0,4.135450287E0,7.679480438E0,8.666527863E0,1.229573398E1
9.904125667E0,5.031786346E0,5.879922638E0,5.306465149E0,9.383546048E0
9.914080667E0,5.289700012E0,4.306095428E0,2.870879974E0,7.400360524E0
9.924036667E0,4.453538818E0,2.684966583E0,1.402134247E0,5.386003528E0
9.933992667E0,4.079466705E0,5.852828979E-1,-5.553451538E-2,4.121612397E0
9.943947667E0,4.008963318E0,-1.245410156E0,-1.725761261E0,4.538841843E0
9.953903667E0,3.669319611E0,-2.611170044E0,-3.058290253E0,5.443827208E0
9.963859667E0,3.206182709E0,-3.493435364E0,-3.953728180E0,6.173788523E0
9.973815667E0,2.288291473E0,-3.851640472E0,-4.727319489E0,6.512984089E0
9.983770667E0,1.064436493E0,-3.838467865E0,-5.579197998E0,6.855239668E0
9.993726667E0,2.481838989E-1,-3.775598602E0,-6.416856079E0,7.449347756E0
1.000368267E1,-8.357121277E-1,-3.834126892E0,-7.075935516E0,8.091217907E0
1.001363867E1,-2.340532837E0,-3.694317627E0,-7.519014130E0,8.698370547E0
1.002359367E1,-3.800596619E0,-3.401975555E0,-6.733597412E0,8.447443782E0
1.003354967E1,-4.414919128E0,-2.916834412E0,-6.522087250E0,8.398634174E0
1.004350567E1,-4.783752136E0,-2.585872650E0,-6.286776581E0,8.312315059E0
1.005346067E1,-5.096601562E0,-2.159110107E0,-5.543123016E0,7.833474115E0
1.006341667E1,-4.906347198E0,-1.544488220E0,-4.884043579E0,7.093064808E0
1.007337267E1,-4.174818420E0,-9.436376953E-1,-3.817212067E0,5.735038701E0
1.008332767E1,-2.800975342E0,-5.057981873E-1,-2.827170868E0,4.011756447E0
1.009328367E1,-1.075812836E0,-6.002517700E-2,-1.609902191E0,1.937204518E0
1.010323967E1,6.845265198E-1,2.986289978E-1,-3.107537842E-1,8.089028056E-1
1.011319567E1,1.949845276E0,6.328839111E-1,9.939331055E-1,2.278232135E0
1.012315067E1,2.762205963E0,9.732760620E-1,2.332449646E0,3.743977755E0
1.013310667E1,3.195255432E0,1.351389771E0,3.510948944E0,4.935855962E0
1.014306267E1,3.152594147E0,1.654659119E0,4.415218506E0,5.671939801E0
1.015301767E1,2.639012146E0,2.114053802E0,4.997657318E0,6.034085453E0
1.016297367E1,1.918859711E0,3.162772980E0,5.263205109E0,6.433232743E0
1.017292967E1,8.090675354E-1,4.644841003E0,5.263504486E0,7.066372315E0
1.018288567E1,-5.049000549E-1,6.249204712E0,5.154680786E0,8.116539756E0
1.019284067E1,-1.105600891E0,8.064479828E0,5.558091888E0,9.856499057E0
1.020279667E1,-4.676275635E-1,1.016012192E1,6.188431091E0,1.190560508E1
1.021275267E1,1.786834259E0,1.233539841E1,6.936575317E0,1.426432290E1
1.022270767E1,5.979914703E0,1.466126175E1,8.446186066E0,1.794575256E1
1.023266367E1,1.014859589E1,1.683369415E1,1.006521927E1,2.208338507E1
1.024261967E1,1.280033157E1,1.794633041E1,1.129266678E1,2.476779333E1
1.025257567E1,1.371537872E1,1.791040512E1,1.392673920E1,2.651128608E1
1.026253067E1,1.347318237E1,1.792312866E1,1.938618622E1,2.964100876E1
1.027248667E1,1.300645294E1,1.842967529E1,2.470941650E1,3.345707718E1
1.028244267E1,1.277518387E1,1.907004364E1,2.696941681E1,3.541498737E1
1.029239767E1,1.322739349E1,1.939232346E1,2.600766678E1,3.503462400E1
1.030235367E1,1.391102188E1,1.969289841E1,2.323258759E1,3.348253132E1
1.031230967E1,1.430051193E1,1.987477020E1,2.035063065E1,3.183801658E1
1.032226567E1,1.399888916E1,1.953946747E1,1.768227951E1,2.983995133E1
1.033222067E1,1.291604095E1,1.894909515E1,1.479852631E1,2.729264923E1
1.034217667E1,1.182091827E1,1.806682983E1,1.200039505E1,2.470129410E1
1.035213267E1,1.058568695E1,1.680031357E1,9.533973999E0,2.202734583E1
1.036208767E1,9.343270569E0,1.511002853E1,7.619305573E0,1.933037725E1
1.037204367E1,8.398585052E0,1.309252396E1,5.966891785E0,1.665995834E1
1.038199967E1,7.699389038E0,1.098161362E1,4.586013336E0,1.417420007E1
1.039195467E1,7.020550690E0,9.016799469E0,3.500919800E0,1.195187199E1
1.040191067E1,6.311475220E0,7.175777893E0,2.506687317E0,9.879776775E0
1.041186667E1,5.594466248E0,5.512586517E0,1.670675812E0,8.029808240E0
1.042182267E1,4.879103851E0,3.991449738E0,9.777667236E-1,6.379134202E0
1.043177767E1,4.204756165E0,2.625240784E0,4.712200928E-1,4.979348547E0
1.044173367E1,3.589236145E0,1.425635376E0,1.953437805E-1,3.866938262E0
1.045168967E1,2.887046356E0,4.400848389E-1,1.383123779E-1,2.923669209E0
1.046164467E1,2.154170380E0,-4.294569397E-1,7.574249268E-2,2.197867196E0
1.047160067E1,1.334325256E0,-1.326990509E0,-2.619552612E-2,1.882023886E0
1.048155667E1,3.733236694E-1,-1.808090057E0,-2.409988403E-2,1.846385935E0
1.049151267E1,-3.522175598E-1,-1.849553833E0,1.579216003E-1,1.889403563E0
1.050146767E1,-1.117875366E0,-1.878743134E0,1.348695374E-1,2.190322097E0
1.051142367E1,-2.105671234E0,-2.062560883E0,-3.152444458E-1,2.964352847E0
1.052137967E1,-2.995121613E0,-2.313588867E0,-1.248852997E0,3.985358294E0
1.053133467E1,-3.613785095E0,-2.541265411E0,-2.410886536E0,5.032876562E0
1.054129067E1,-3.912563782E0,-2.645149384E0,-3.619772644E0,5.950439026E0
1.055124667E1,-3.888912964E0,-2.655777283E0,-4.584815826E0,6.572467815E0
1.056120267E1,-3.649560699E0,-2.430795135E0,-5.213358765E0,6.812280668E0
1.057115767E1,-3.076402588E0,-1.970951385E0,-5.566324768E0,6.658293600E0
1.058111367E1,-2.380799103E0,-1.429377594E0,-5.595813446E0,6.246955482E0
1.059106967E1,-1.779200134E0,-1.069076843E0,-5.353766785E0,5.742063845E0
1.060102467E1,-1.139580231E0,-8.434959412E-1,-5.030738525E0,5.226706288E0
1.061098067E1,-3.085084534E-1,-6.701564026E-1,-4.490960999E0,4.551155651E0
1.062093667E1,5.730084229E-1,-2.338137817E-1,-3.498973846E0,3.553283765E0
1.063089167E1,1.282682648E0,5.385800171E-1,-2.268831940E0,2.661379638E0
1.064084767E1,1.515298920E0,1.584006042E0,-1.082848206E0,2.444947074E0
1.065080367E1,9.846524048E-1,2.833308105E0,4.905299377E-1,3.039374080E0
1.066075967E1,3.219804382E-1,4.178261261E0,1.610500946E0,4.489460086E0
1.067071467E1,-3.471281433E-1,5.491779785E0,2.784359894E0,6.167074118E0
1.068067067E1,-7.647596741E-1,7.420069885E0,4.941374359E0,8.947596047E0
1.069062667E1,3.622467041E-2,9.833052063E0,7.504793701E0,1.236980815E1
1.070058267E1,2.329755249E0,1.212987579E1,1.055155792E1,1.624490754E1
1.071053767E1,5.577102356E0,1.410606628E1,1.302261932E1,1.999184311E1
1.072049367E1,9.155710602E0,1.582254684E1,1.518157974E1,2.376258380E1
1.073044967E1,1.236773117E1,1.702364914E1,1.727871872E1,2.722718357E1
1.074040467E1,1.409678558E1,1.721225693E1,1.878488663E1,2.911791747E1
1.075036067E1,1.327454544E1,1.703128326E1,1.950638626E1,2.909943764E1
1.076031667E1,1.037133270E1,1.732422409E1,1.932735855E1,2.795067210E1
1.077027167E1,7.146139526E0,1.787028854E1,1.877380966E1,2.688625024E1
1.078022767E1,4.982389069E0,1.795156952E1,1.839719284E1,2.618281409E1
1.079018367E1,4.083657990E0,1.765009644E1,1.803629333E1,2.556384251E1
1.080013967E1,4.039649506E0,1.729024475E1,1.771027130E1,2.507837796E1
1.081009467E1,4.178261261E0,1.666379745E1,1.700433929E1,2.417204103E1
1.082005067E1,3.986510010E0,1.577359863E1,1.581910400E1,2.269234953E1
1.083000667E1,3.570525055E0,1.485450989E1,1.435395081E1,2.096284849E1
1.083996167E1,3.105442200E0,1.396446075E1,1.272982819E1,1.914937234E1
1.084991767E1,2.881956940E0,1.300630325E1,1.119057907E1,1.739823727E1
1.085987367E1,3.069816284E0,1.191686874E1,9.933642883E0,1.581495475E1
1.086982967E1,3.412902832E0,1.073208252E1,8.990903320E0,1.441047686E1
1.087978467E1,3.670517120E0,9.406139832E0,8.115673370E0,1.295423933E1
1.088974067E1,3.619473267E0,8.079897766E0,7.237749023E0,1.143548624E1
1.089969667E1,3.350931702E0,6.785389709E0,6.420149231E0,9.924140916E0
1.090965167E1,2.989283752E0,5.437592468E0,5.609884186E0,8.365048104E0
1.091960767E1,2.554288330E0,4.115841064E0,4.770280151E0,6.798537289E0
1.092956367E1,2.145488434E0,2.951412506E0,4.020040283E0,5.429058876E0
1.093951967E1,1.733545074E0,1.905986481E0,3.433859253E0,4.292942156E0
1.094947467E1,1.238823853E0,9.493258667E-1,2.932551727E0,3.322012007E0
1.095943067E1,6.767427063E-1,2.820135498E-1,2.551893311E0,2.655121805E0
1.096938667E1,1.428030396E-1,-1.199006653E-1,2.192341003E0,2.200256338E0
1.097934167E1,-3.616479492E-1,-3.571572876E-1,1.805245972E0,1.875436905E0
1.098929767E1,-8.345146179E-1,-4.433779907E-1,1.403182068E0,1.691720605E0
1.099925367E1,-1.331780548E0,-4.845423889E-1,9.367520142E-1,1.698801075E0
1.100920867E1,-1.810185699E0,-5.367837524E-1,1.908531189E-1,1.897718097E0
1.101916467E1,-2.106269989E0,-5.189707947E-1,-5.469625854E-1,2.237157130E0
1.102912067E1,-2.279609528E0,-4.296066284E-1,-1.196012878E0,2.609909627E0
1.103907667E1,-2.217339020E0,-2.793191528E-1,-1.899699554E0,2.933167216E0
1.104903167E1,-1.825903015E0,-9.580078125E-3,-2.446662140E0,3.052895220E0
1.105898767E1,-1.226848755E0,2.811154175E-1,-2.591411133E0,2.880901839E0
1.106894367E1,-6.252497864E-1,4.487667847E-1,-2.479294281E0,2.596002514E0
1.107889867E1,1.892065430E-1,6.012995911E-1,-2.099683685E0,2.192266383E0
1.108885467E1,1.286125488E0,7.758366394E-1,-1.452729034E0,2.089608315E0
1.109881067E1,2.687511292E0,9.515711975E-1,-7.580236816E-1,2.950051625E0
1.110876667E1,4.748874664E0,1.232237549E0,2.659968567E-1,4.913346546E0
1.111872167E1,6.226452026E0,1.777403870E0,1.435365143E0,6.632355724E0
1.112867767E1,5.868995361E0,2.420616302E0,2.333347778E0,6.763800832E0
1.113863367E1,4.114643555E0,2.720293121E0,3.319796448E0,5.945698841E0
1.114858867E1,1.744771729E0,3.254831543E0,4.215533752E0,5.604362727E0
1.115854467E1,-1.472937012E-1,4.569846954E0,4.447102203E0,6.378237580E0
1.116850067E1,-1.373843079E0,6.683601379E0,4.105512543E0,7.963240888E0
1.117845567E1,-2.023342438E0,9.266929321E0,3.854334869E0,1.023844671E1
1.118841167E1,-2.539618835E0,1.150058441E1,4.895719299E0,1.275465300E1
1.119836767E1,-2.386936340E0,1.294732590E1,7.705975342E0,1.525492606E1
1.120832367E1,-8.890013123E-1,1.434586761E1,1.063762894E1,1.788164954E1
1.121827867E1,1.531764679E0,1.544937286E1,1.275153305E1,2.009057043E1
1.122823467E1,5.264851685E0,1.586625595E1,1.450528610E1,2.213278261E1
1.123819067E1,8.202193451E0,1.611893051E1,1.614273102E1,2.424218767E1
1.124814567E1,7.544610901E0,1.644824570E1,1.715043549E1,2.493197500E1
1.125810117E1,5.408253479E0,1.684492081E1,1.799887115E1,2.523806501E1
1.126805717E1,3.473975830E0,1.724923004E1,1.831860626E1,2.540031064E1
1.127801317E1,1.712588654E0,1.728126343E1,1.784798492E1,2.490232100E1
1.128796817E1,5.465135193E-1,1.680749863E1,1.774350220E1,2.444631991E1
1.129792417E1,4.478686523E-1,1.616997437E1,1.829181198E1,2.441841606E1
1.130788017E1,1.301693115E0,1.532168839E1,1.865031647E1,2.417194333E1
1.131783517E1,2.821183319E0,1.443283676E1,1.838881027E1,2.354600169E1
1.132779117E1,4.297712860E0,1.371043900E1,1.723441086E1,2.243816817E1
1.133774717E1,4.914580078E0,1.265348694E1,1.564097443E1,2.070999541E1
1.134770317E1,4.540058899E0,1.106289459E1,1.425365936E1,1.860555231E1
1.135765817E1,4.116888885E0,9.126221924E0,1.319386322E1,1.656244932E1
1.136761417E1,3.799249420E0,7.201374664E0,1.225875778E1,1.471635945E1
1.137757017E1,3.355572052E0,5.526806946E0,1.132440079E1,1.304022669E1
1.138752517E1,2.810854797E0,3.855083313E0,1.031549881E1,1.136538991E1
1.139748117E1,2.121987305E0,2.223326569E0,8.999435577E0,9.509776646E0
1.140743717E1,1.655407562E0,9.132508850E-1,7.589517517E0,7.821456227E0
1.141739217E1,1.638792114E0,-1.796264648E-3,6.328689423E0,6.537427065E0
1.142734817E1,1.692979431E0,-5.511538696E-1,5.091063080E0,5.393410167E0
1.143730417E1,1.618135071E0,-8.663983154E-1,3.762725372E0,4.186539069E0
1.144726017E1,1.542841644E0,-9.592053223E-1,2.641856232E0,3.206218885E0
1.145721517E1,1.281335449E0,-9.687854004E-1,1.659299469E0,2.309467561E0
1.146717117E1,7.005432129E-1,-9.584568787E-1,6.295907593E-1,1.343794964E0
1.147712717E1,-5.328918457E-2,-8.452922058E-1,-5.090913391E-1,9.881966616E-1
1.148708217E1,-5.683680725E-1,-6.921606445E-1,-1.498982849E0,1.746160991E0
1.149703817E1,-8.762777710E-1,-6.936575317E-1,-2.324965210E0,2.579629185E0
1.150699417E1,-1.043031006E0,-5.956114197E-1,-2.826123047E0,3.070771584E0
1.151694917E1,-8.207432556E-1,-3.147953796E-1,-3.062481537E0,3.186143246E0
1.152690517E1,-5.212161255E-1,6.990463257E-2,-3.174748077E0,3.218008431E0
1.153686117E1,-3.236270142E-1,4.209246826E-1,-3.026855621E0,3.073071263E0
1.154681717E1,-1.269360352E-1,6.114784241E-1,-2.797532501E0,2.866392631E0
1.155677217E1,4.311035156E-2,7.114704895E-1,-2.472258911E0,2.572958003E0
1.156672817E1,2.523751831E-1,8.387059021E-1,-1.939516754E0,2.128108565E0
1.157668417E1,3.140469360E-1,9.870474243E-1,-1.521436157E0,1.840558632E0
1.158663917E1,3.683839417E-1,1.103804626E0,-1.068328400E0,1.579688878E0
1.159659517E1,5.554948425E-1,1.342707825E0,-3.523672485E-1,1.495192797E0
1.160655117E1,8.295748901E-1,1.753303986E0,5.001100159E-1,2.003092457E0
1.161650717E1,8.428971863E-1,2.320474548E0,1.422042847E0,2.849084705E0
1.162646217E1,5.218148804E-1,3.064577179E0,2.418370972E0,3.938583783E0
1.163641817E1,-1.775308228E-1,4.011508026E0,3.395538940E0,5.258649877E0
1.164637417E1,-1.014290771E0,5.312452698E0,4.353846130E0,6.943120016E0
1.165632917E1,-1.591789856E0,6.881190491E0,5.072351990E0,8.695592690E0
1.166628517E1,-1.553918610E0,8.389903107E0,5.716013489E0,1.027024573E1
1.167624117E1,-9.889933777E-1,1.004650818E1,6.884783020E0,1.221927460E1
1.168619617E1,1.077758789E-2,1.185983734E1,9.197623444E0,1.500840214E1
1.169615217E1,1.919009399E0,1.363903748E1,1.305734711E1,1.897894238E1
1.170610817E1,4.452041931E0,1.536405029E1,1.703652237E1,2.336916372E1
1.171606417E1,6.329886932E0,1.654344772E1,1.959006226E1,2.641067342E1
1.172601917E1,6.359076233E0,1.763707352E1,2.038176590E1,2.769333122E1
1.173597517E1,4.871020660E0,1.883039200E1,2.037383240E1,2.816742004E1
1.174593117E1,2.837050323E0,1.914428925E1,2.155098450E1,2.896545525E1
1.175588617E1,8.729846191E-1,1.749277359E1,2.456945755E1,3.017312503E1
1.176584217E1,3.263214111E-2,1.507140884E1,2.843771347E1,3.218465437E1
1.177579817E1,1.666035461E-1,1.327424606E1,3.135005722E1,3.404496223E1
1.178575417E1,9.472302246E-1,1.200593353E1,3.237991562E1,3.454704938E1
1.179570917E1,1.860780487E0,1.100227066E1,3.089620102E1,3.284947033E1
1.180566517E1,2.551593933E0,1.003348526E1,2.714320541E1,2.905056038E1
1.181562117E1,3.300785980E0,9.154662781E0,2.253518784E1,2.454664396E1
1.182557617E1,3.764222260E0,8.234675903E0,1.797566940E1,2.012719421E1
1.183553217E1,3.881727905E0,7.251969452E0,1.403182068E1,1.626501964E1
1.184548817E1,3.657494202E0,5.895340576E0,1.059676392E1,1.266584817E1
1.185544317E1,3.133583679E0,4.492457886E0,7.774981842E0,9.510618654E0
1.186539917E1,2.327958984E0,2.963986359E0,5.684429169E0,6.820362391E0
1.187535517E1,1.660646667E0,1.683099976E0,3.560495911E0,4.274073468E0
1.188531117E1,2.128124542E0,4.885839844E-1,1.099164276E0,2.444543001E0
1.189526617E1,3.463946686E0,-2.689906311E-1,-9.129515076E-1,3.592320010E0
1.190522217E1,4.804858246E0,-4.010160828E-1,-2.229314117E0,5.311997562E0
1.191517817E1,5.153483276E0,-2.161505127E-1,-3.148103485E0,6.042819415E0
1.192513317E1,4.376598816E0,-1.392105103E-2,-3.939358063E0,5.888408354E0
1.193508917E1,3.104843445E0,4.700225830E-2,-4.547543335E0,5.506579012E0
1.194504517E1,1.707199860E0,4.281097412E-2,-4.952750702E0,5.238902906E0
1.195500117E1,1.483415222E-1,-9.430389404E-3,-5.432053986E0,5.434087287E0
1.196495617E1,-1.273551636E0,-1.070274353E-1,-6.073769531E0,6.206775730E0
1.197491217E1,-2.056273956E0,-2.615061951E-1,-6.462810516E0,6.787088319E0
1.198486817E1,-2.157912598E0,-3.376977539E-1,-6.333928528E0,6.699946056E0
1.199482317E1,-1.509311371E0,-3.403921509E-1,-5.478906555E0,5.693180541E0
1.200477917E1,-7.762857056E-1,-1.351689148E-1,-3.979774017E0,4.057029869E0
1.201473517E1,5.792953491E-2,2.525248718E-1,-1.734143829E0,1.753390847E0
1.202469017E1,5.008584595E-1,8.762777710E-1,1.745220795E0,2.016064868E0
1.203464617E1,1.426533508E0,5.878276062E-1,1.355281677E0,2.053613296E0
1.204460217E1,1.957629089E0,5.466632080E-1,2.462978210E0,3.193339002E0
1.205455817E1,2.069296875E0,8.038284302E-1,2.587519226E0,3.409308647E0
1.206451317E1,2.111209717E0,9.318122864E-1,3.035986633E0,3.813488618E0
1.207446917E1,2.353106689E0,1.080004120E0,3.732188873E0,4.542329114E0
1.208442517E1,2.724933472E0,1.184337158E0,4.639452209E0,5.509304288E0
1.209438017E1,2.791694641E0,1.636696472E0,5.842949524E0,6.679250965E0
1.210433617E1,2.419418793E0,2.355501709E0,7.225025482E0,7.975146946E0
1.211429217E1,1.238374786E0,3.197949829E0,8.534652100E0,9.197866148E0
1.212424717E1,-2.149530029E-1,4.184398499E0,9.205107880E0,1.011382255E1
1.213420317E1,-9.318122864E-1,5.406606903E0,9.322014771E0,1.081663680E1
1.214415917E1,-7.864645386E-1,6.929240570E0,9.641749878E0,1.189942192E1
1.215411517E1,3.297642517E-1,8.534951477E0,1.047716263E1,1.351758403E1
1.216407017E1,1.608554993E0,9.808952179E0,1.172152496E1,1.536870650E1
1.217402617E1,1.307081909E0,1.104927292E1,1.422267380E1,1.805766721E1
1.218398217E1,1.107696533E-1,1.155911270E1,1.746358429E1,2.094283010E1
1.219393717E1,-8.789721680E-1,1.032388138E1,1.962089813E1,2.218861785E1
1.220389317E1,-1.566791840E0,9.652377777E0,1.883473297E1,2.122193204E1
1.221384917E1,-2.145189056E0,1.228166016E1,1.602417755E1,2.030308544E1
1.222380417E1,-1.715732117E0,1.607402390E1,1.346569794E1,2.103908272E1
1.223376017E1,-1.201401672E0,1.908606033E1,1.297471893E1,2.310983333E1
1.224371617E1,-4.505630493E-1,2.004167313E1,1.370055954E1,2.428120673E1
1.225367217E1,3.207829285E-1,1.920685913E1,1.494013184E1,2.433544490E1
1.226362758E1,8.273295593E-1,1.785726562E1,1.640633286E1,2.426384486E1
1.227358358E1,1.116378479E0,1.630664017E1,1.741044479E1,2.388046068E1
1.228353958E1,1.188378754E0,1.447714462E1,1.743768814E1,2.269521818E1
1.229349458E1,1.037941589E0,1.256127869E1,1.654793839E1,2.080137759E1
1.230345058E1,9.958790588E-1,1.064062271E1,1.502620285E1,1.843912685E1
1.231340658E1,1.419647827E0,8.856931915E0,1.309491898E1,1.587254062E1
1.232336158E1,2.009571075E0,7.392826538E0,1.102637054E1,1.342658212E1
1.233331758E1,2.575843506E0,6.240822144E0,9.028026123E0,1.127333520E1
1.234327358E1,3.414250031E0,4.939428406E0,7.022496643E0,9.239616623E0
1.235322958E1,4.053720245E0,3.522474976E0,5.200934601E0,7.475974753E0
1.236318458E1,4.227808228E0,2.248773651E0,3.731440430E0,6.070831329E0
1.237314058E1,4.172273712E0,1.113983459E0,2.481240234E0,4.980499993E0
1.238309658E1,3.701652374E0,2.541714478E-1,1.225202179E0,3.907422911E0
1.239305158E1,2.739752655E0,-1.981878662E-1,2.619552612E-2,2.747036448E0
1.240300758E1,1.761836243E0,-5.162763977E-1,-1.114731903E0,2.147844380E0
1.241296358E1,9.120533752E-1,-8.779243469E-1,-1.983674927E0,2.353201805E0
1.242291958E1,-4.685256958E-2,-1.137634277E0,-2.395468597E0,2.652296498E0
1.243287458E1,-9.401948547E-1,-1.319206696E0,-2.531984711E0,3.005864143E0
1.244283058E1,-1.556463318E0,-1.331930237E0,-2.340083771E0,3.110081714E0
1.245278658E1,-1.738634491E0,-1.007255402E0,-1.836231537E0,2.721977148E0
1.246274158E1,-1.542691956E0,-5.161267090E-1,-1.285975800E0,2.073648718E0
1.247269758E1,-1.275048523E0,-1.514849854E-1,-8.566685486E-1,1.543559989E0
1.248265358E1,-1.041683807E0,2.044747925E-1,-3.493734741E-1,1.117576360E0
1.249260858E1,-9.544152832E-1,5.689668274E-1,5.093907166E-1,1.222338204E0
1.250256458E1,-9.288185120E-1,7.809260559E-1,1.403182068E0,1.855119740E0
1.251252058E1,-1.017583923E0,7.349716187E-1,2.176623688E0,2.512638255E0
1.252247658E1,-1.373394012E0,5.402265930E-1,2.869532776E0,3.226805578E0
1.253243158E1,-1.896256714E0,4.252656555E-1,3.792064362E0,4.261031862E0
1.254238758E1,-2.260898438E0,6.920109558E-1,5.066514130E0,5.591073809E0
1.255234358E1,-2.352957001E0,1.466201019E0,6.319259033E0,6.900665678E0
1.256229858E1,-2.152224426E0,2.815794525E0,7.562124481E0,8.351436730E0
1.257225458E1,-1.540296936E0,4.546495514E0,8.814120941E0,1.003652649E1
1.258221058E1,-1.026714935E0,6.445147247E0,9.851164398E0,1.181691612E1
1.259216558E1,-7.164102173E-1,7.996670837E0,1.058404037E1,1.328464899E1
1.260212158E1,-1.071920929E0,8.763675842E0,1.123503662E1,1.428905443E1
1.261207758E1,-1.655557251E0,8.713530121E0,1.224678268E1,1.512118260E1
1.262203358E1,-1.847158813E0,8.418044586E0,1.347572708E1,1.599595857E1
1.263198858E1,-1.656156006E0,8.778644714E0,1.488190292E1,1.735737568E1
1.264194458E1,-1.226399689E0,1.017883301E1,1.647459091E1,1.940424807E1
1.265190058E1,-6.182144165E-1,1.183678528E1,1.766551437E1,2.127350636E1
1.266185558E1,3.115022278E-1,1.261292130E1,1.794618073E1,2.193737040E1
1.267181158E1,7.798782349E-1,1.231189728E1,1.813823135E1,2.193596274E1
1.268176758E1,2.008822632E-1,1.214304840E1,1.797387314E1,2.169225884E1
1.269172258E1,-1.152752838E0,1.328068268E1,1.759411285E1,2.207392531E1
1.270167858E1,-1.537452850E0,1.473595642E1,1.708562027E1,2.261483126E1
1.271163458E1,-1.105301514E0,1.575773163E1,1.611937958E1,2.256905393E1
1.272159058E1,-5.501060486E-1,1.595472198E1,1.604857681E1,2.263653215E1
1.273154558E1,1.196012878E-1,1.524235336E1,1.719010300E1,2.297484019E1
1.274150158E1,1.164428558E0,1.444780563E1,1.857053238E1,2.355758167E1
1.275145758E1,1.985321503E0,1.351913681E1,1.851589600E1,2.301188750E1
1.276141258E1,2.484982452E0,1.226504471E1,1.722962082E1,2.129474802E1
1.277136858E1,2.755919037E0,1.089823700E1,1.576072540E1,1.935890298E1
1.278132458E1,2.822680206E0,9.317673798E0,1.402074371E1,1.706949978E1
1.279127958E1,2.755769348E0,7.747738495E0,1.209335175E1,1.462432470E1
1.280123558E1,2.593357086E0,6.253545685E0,1.016581009E1,1.221376393E1
1.281119158E1,2.131567383E0,4.642296295E0,8.342302094E0,9.782049817E0
1.282114758E1,1.455124054E0,3.133284302E0,6.392157440E0,7.265984673E0
1.283110258E1,1.161883850E0,1.860331421E0,4.371958466E0,4.891301248E0
1.284105858E1,1.143172760E0,7.855664063E-1,2.662363586E0,3.002022386E0
1.285101458E1,9.303153992E-1,-1.558259583E-1,1.422491913E0,1.706825039E0
1.286096958E1,9.074130249E-1,-1.136436768E0,1.939965820E-1,1.467147436E0
1.287092558E1,5.254074097E-1,-1.985022125E0,-8.996292114E-1,2.241806972E0
1.288088158E1,-1.785786438E-1,-2.526446228E0,-1.786385193E0,3.099353631E0
1.289083658E1,-1.141526184E0,-2.584525452E0,-2.412682800E0,3.715358951E0
1.290079258E1,-2.210303650E0,-2.376158752E0,-2.799328766E0,4.285768797E0
1.291074858E1,-3.133883057E0,-2.056723022E0,-2.849324799E0,4.708501291E0
1.292070458E1,-3.435805206E0,-1.442101135E0,-2.909499664E0,4.727536504E0
1.293065958E1,-3.213218079E0,-7.575746155E-1,-2.949017487E0,4.426668483E0
1.294061558E1,-2.675087128E0,-1.339714050E-1,-2.879262543E0,3.932453721E0
1.295057158E1,-1.733245697E0,3.661386108E-1,-2.811752930E0,3.323274389E0
1.296052658E1,-5.346881104E-1,8.122109985E-1,-2.688409424E0,2.858867488E0
1.297048258E1,5.412744141E-1,1.160386963E0,-2.513872375E0,2.821175325E0
1.298043858E1,1.239871674E0,1.223405914E0,-2.216291199E0,2.818856235E0
1.299039358E1,1.360520782E0,1.042132874E0,-1.580563202E0,2.331359638E0
1.300034958E1,1.015039215E0,7.704478455E-1,-5.878276062E-1,1.403365877E0
1.301030558E1,5.249583435E-1,5.471122742E-1,5.138813782E-1,9.159624303E-1
1.302026158E1,-7.753875732E-2,6.400689697E-1,1.466500397E0,1.601975018E0
1.303021658E1,-4.517605591E-1,1.331630859E0,2.372117157E0,2.757583753E0
1.304017258E1,-4.767585754E-1,2.747237091E0,3.260220337E0,4.289947205E0
1.305012858E1,-5.519023132E-1,4.629273376E0,4.396208038E0,6.407918014E0
1.306008358E1,1.646575928E-3,6.513105927E0,5.826932831E0,8.739204640E0
1.307003958E1,1.047371979E0,8.300389252E0,7.359895020E0,1.114277813E1
1.307999558E1,1.847458191E0,1.008153534E1,9.191635895E0,1.376723019E1
1.308995058E1,2.098486176E0,1.170835236E1,1.135912857E1,1.644746062E1
1.309990658E1,1.288071442E0,1.300780014E1,1.351674179E1,1.880330559E1
1.310986258E1,4.572990417E-1,1.356015152E1,1.586161560E1,2.087289345E1
1.311981858E1,2.851570129E-1,1.309701462E1,1.894265854E1,2.303122704E1
1.312977358E1,8.583151245E-1,1.165581161E1,2.104398880E1,2.407164543E1
1.313972958E1,1.274898834E0,1.094404175E1,2.054687256E1,2.331461749E1
1.314968558E1,1.584904175E0,1.262953674E1,1.932735855E1,2.314225374E1
1.315964058E1,1.449735260E0,1.534878204E1,1.956072327E1,2.490599802E1
1.316959658E1,1.257984009E0,1.606309662E1,2.097004257E1,2.644519393E1
1.317955258E1,1.332379303E0,1.419827454E1,2.378703461E1,2.773426130E1
1.318950758E1,1.115779724E0,1.200308945E1,2.714889359E1,2.970490774E1
1.319946358E1,9.214837646E-1,1.069121750E1,2.949721024E1,3.138847998E1
1.320941958E1,8.261320496E-1,9.807305603E0,2.992981064E1,3.150649619E1
1.321937558E1,7.307803345E-1,8.893006897E0,2.800451431E1,2.939170688E1
1.322933058E1,6.873706055E-1,8.089777222E0,2.446991455E1,2.578165417E1
1.323928658E1,1.074465637E0,7.293732605E0,1.993808853E1,2.125747835E1
1.324924258E1,1.663490753E0,6.301446075E0,1.529519348E1,1.662583435E1
1.325919758E1,1.884281616E0,5.122797089E0,1.135598511E1,1.259968115E1
1.326915333E1,1.906884613E0,3.682492218E0,8.192313995E0,9.182100330E0
1.327910933E1,1.901196442E0,1.977388000E0,5.645959167E0,6.277058717E0
1.328906433E1,1.670526123E0,3.278182983E-1,3.677402802E0,4.052334356E0
1.329902033E1,1.292412415E0,-9.702822876E-1,2.252964935E0,2.772657311E0
1.330897633E1,6.719526672E-1,-1.835782471E0,9.542655945E-1,2.175371346E0
1.331893233E1,-1.862127686E-1,-2.314487000E0,-3.357518005E-1,2.346114775E0
1.332888733E1,-1.183439026E0,-2.547402649E0,-1.523681488E0,3.195527102E0
1.333884333E1,-1.941013641E0,-2.554288330E0,-2.660267944E0,4.167607031E0
1.334879933E1,-2.474803619E0,-2.235601044E0,-3.491489410E0,4.828360310E0
1.335875433E1,-2.904559937E0,-1.575024719E0,-3.949237518E0,5.149140537E0
1.336871033E1,-2.913840637E0,-9.110055542E-1,-4.157604218E0,5.158107328E0
1.337866633E1,-2.493365021E0,-5.766009521E-1,-4.234993286E0,4.948182082E0
1.338862133E1,-2.052831116E0,-4.736151123E-1,-4.219425659E0,4.716140345E0
1.339857733E1,-1.567989349E0,-3.882925415E-1,-4.089196472E0,4.396690743E0
1.340853333E1,-1.088237000E0,-3.600013733E-1,-3.824247437E0,3.992333805E0
1.341848933E1,-9.066645813E-1,-3.661386108E-1,-3.385809174E0,3.524173932E0
1.342844433E1,-6.536906433E-1,-3.882925415E-1,-2.952310638E0,3.048642429E0
1.343840033E1,-3.008743286E-1,-4.655319214E-1,-2.492317200E0,2.553211773E0
1.344835633E1,-1.073268127E-1,-6.020480347E-1,-2.055226135E0,2.144279680E0
1.345831133E1,-1.002914429E-1,-6.837780762E-1,-1.542841644E0,1.690553510E0
1.346826733E1,-8.232879639E-2,-6.256988525E-1,-8.762777710E-1,1.079879538E0
1.347822333E1,2.694396973E-2,-4.083508301E-1,-4.385879517E-2,4.115822783E-1
1.348817833E1,5.089416504E-3,1.017883301E-1,9.407936096E-1,9.462977239E-1
1.349813433E1,-5.074447632E-2,9.906399536E-1,2.179767151E0,2.394854349E0
1.350809033E1,7.155120850E-2,2.383643188E0,3.770958252E0,4.461726187E0
1.351804633E1,-1.047821045E-2,4.061204681E0,5.508095856E0,6.843435775E0
1.352800133E1,-3.162922668E-1,5.711522827E0,7.207511902E0,9.201617337E0
1.353795733E1,-5.715115356E-1,7.231761475E0,9.006171570E0,1.156443366E1
1.354791333E1,-4.321513367E-1,8.322842560E0,1.097248260E1,1.377867329E1
1.355786833E1,2.993774414E-3,8.942553864E0,1.311482758E1,1.587349933E1
1.356782433E1,4.977149963E-1,9.511371002E0,1.592343704E1,1.855450743E1
1.357778033E1,1.230141907E0,1.029633865E1,1.968137238E1,2.224599419E1
1.358773533E1,1.661844177E0,1.079120956E1,2.448682938E1,2.681075797E1
1.359769133E1,2.510728912E0,9.724677429E0,2.832409973E1,3.005208373E1
1.360764733E1,2.353106689E0,9.107660522E0,2.701701782E1,2.860779340E1
1.361760233E1,3.561094666E-1,1.200922668E1,2.088576782E1,2.409488819E1
1.362755833E1,7.702981567E-1,1.556732758E1,1.666664154E1,2.281911452E1
1.363751433E1,1.057401123E0,1.780218018E1,1.718157074E1,2.476372527E1
1.364747033E1,1.294208679E0,1.678788940E1,1.983315674E1,2.601657766E1
1.365742533E1,1.562301178E0,1.435230423E1,2.265014877E1,2.685998252E1
1.366738133E1,2.067051544E0,1.248059647E1,2.542792236E1,2.840100748E1
1.367733733E1,2.577490082E0,1.057535843E1,2.710503479E1,2.920898102E1
1.368729233E1,2.722688141E0,8.783434753E0,2.658022614E1,2.812596982E1
1.369724833E1,3.088976440E0,7.572902069E0,2.421259964E1,2.555661563E1
1.370720433E1,3.594475250E0,6.904841309E0,2.039149567E1,2.182682252E1
1.371715933E1,3.979025574E0,6.278094635E0,1.587284225E1,1.752695747E1
1.372711533E1,4.186494141E0,5.496420135E0,1.164727936E1,1.354239580E1
1.373707133E1,3.849694519E0,4.366719360E0,8.546327820E0,1.034060468E1
1.374702733E1,3.033292236E0,2.842289429E0,6.279292145E0,7.530536556E0
1.375698233E1,2.287842407E0,1.131347351E0,4.432133331E0,5.114486834E0
1.376693833E1,1.807042236E0,-3.715274048E-1,3.138074341E0,3.640184724E0
1.377689433E1,1.286873932E0,-1.534159698E0,2.067650299E0,2.878344708E0
1.378684933E1,6.535409546E-1,-2.407443695E0,9.397457886E-1,2.665712489E0
1.379680533E1,-5.837860107E-3,-2.941533051E0,-3.397933960E-2,2.941735094E0
1.380676133E1,-7.397616577E-1,-3.079845428E0,-8.029302979E-1,3.267627922E0
1.381671633E1,-1.487157440E0,-2.995121613E0,-1.548230438E0,3.685024860E0
1.382667233E1,-2.230062561E0,-2.713257751E0,-2.417921906E0,4.263952743E0
1.383662833E1,-2.790796509E0,-2.107467499E0,-3.274590454E0,4.790919228E0
1.384658433E1,-2.989882507E0,-1.296004944E0,-3.996838531E0,5.156912300E0
1.385653933E1,-2.729274445E0,-7.631130981E-1,-4.441264343E0,5.268406738E0
1.386649533E1,-1.947001190E0,-5.060975647E-1,-4.609514465E0,5.029370933E0
1.387645133E1,-1.148860931E0,-3.658392334E-1,-4.583318939E0,4.739254402E0
1.388640633E1,-2.565664673E-1,-3.855981445E-1,-4.345613251E0,4.370225029E0
1.389636233E1,3.784130859E-1,-1.923500061E-1,-3.664529572E0,3.689034016E0
1.390631833E1,8.113128662E-1,1.212478638E-1,-2.525099030E0,2.655005597E0
1.391627333E1,1.113983459E0,3.787124634E-1,-1.152303772E0,1.646871659E0
1.392622933E1,1.216520233E0,4.760101318E-1,8.666976929E-2,1.309205397E0
1.393618533E1,7.506889343E-1,5.554948425E-1,1.216669922E0,1.533751641E0
1.394614033E1,-4.674778748E-1,1.029708710E0,3.138822784E0,3.336321936E0
1.395609633E1,-1.179098053E0,1.995949402E0,3.207829285E0,3.957809363E0
1.396605233E1,-2.087708588E0,3.425776062E0,3.993096313E0,5.660325692E0
1.397600833E1,-2.469863892E0,5.240302734E0,4.693040771E0,7.455577246E0
1.398596333E1,-2.166444855E0,7.130571899E0,5.665269012E0,9.361293282E0
1.399591933E1,-1.237776031E0,8.511150970E0,7.098089447E0,1.115144180E1
1.400587533E1,-2.395019531E-3,9.510472870E0,9.410780182E0,1.337953226E1
1.401583033E1,6.152206421E-1,1.032268387E1,1.280871414E1,1.646206113E1
1.402578633E1,6.212081909E-2,1.078612015E1,1.689835968E1,2.004741397E1
1.403574233E1,-1.759890289E0,1.109567642E1,2.079670303E1,2.363713405E1
1.404569733E1,-3.452720032E0,1.052970337E1,2.426020065E1,2.667120665E1
1.405565333E1,-2.808609467E0,8.870553589E0,2.600631958E1,2.762071082E1
1.406560933E1,-7.442523193E-1,9.035510559E0,2.438968140E1,2.602020217E1
1.407556533E1,1.377585297E0,1.236084549E1,2.141401932E1,2.476385402E1
1.408552033E1,4.123325500E0,1.486034775E1,2.116808075E1,2.619006283E1
1.409547633E1,4.424648895E0,1.487007751E1,2.296015411E1,2.771038434E1
1.410543233E1,2.740201721E0,1.259331207E1,2.481509674E1,2.796228247E1
1.411538733E1,5.848338318E-1,1.048479675E1,2.639161835E1,2.840405803E1
1.412534333E1,-9.156459045E-1,9.380243683E0,2.751368500E1,2.908316078E1
1.413529933E1,-1.463356934E0,8.710835724E0,2.703288483E1,2.843935538E1
1.414525433E1,-1.306782532E0,8.534203033E0,2.466480927E1,2.613222375E1
1.415521033E1,-8.334667969E-1,8.543783112E0,2.143347885E1,2.308863167E1
1.416516633E1,-1.832189941E-1,8.212671661E0,1.779245041E1,1.959726605E1
1.417512233E1,2.002835083E-1,7.418423309E0,1.416115173E1,1.598784965E1
1.418507733E1,5.818400574E-1,6.283932495E0,1.084674408E1,1.254903194E1
1.419503333E1,8.478369141E-1,5.066214752E0,8.093369751E0,9.585822514E0
1.420498933E1,9.684860229E-1,3.849993896E0,5.391188965E0,6.695172637E0
1.421494433E1,7.845185852E-1,2.365081787E0,2.751727753E0,3.712288633E0
1.422490033E1,3.323089600E-1,9.315129089E-1,7.680528259E-1,1.252218307E0
1.423485633E1,-2.409988403E-1,-3.950285339E-1,-6.096821594E-1,7.654020637E-1
1.424481133E1,-4.839436340E-1,-1.379531250E0,-1.730700989E0,2.265531687E0
1.425476733E1,-7.520361328E-1,-1.881886597E0,-2.617756348E0,3.310544336E0
1.426472379E1,-1.337768097E0,-2.030078430E0,-3.387904816E0,4.169980930E0
1.427467879E1,-1.921105042E0,-2.088457031E0,-4.014352112E0,4.916026874E0
1.428463479E1,-2.239193573E0,-2.140249329E0,-4.412673798E0,5.391321275E0
1.429459079E1,-2.230811005E0,-2.036964111E0,-4.533023529E0,5.447388626E0
1.430454679E1,-2.179767151E0,-1.569785614E0,-4.485422516E0,5.228252753E0
1.431450179E1,-2.240391083E0,-9.906399536E-1,-4.479584656E0,5.105624194E0
1.432445779E1,-2.203417969E0,-6.562353516E-1,-4.216731262E0,4.802761510E0
1.433441379E1,-1.908381500E0,-4.995112610E-1,-3.553011475E0,4.063904771E0
1.434436879E1,-1.273851013E0,-2.930905151E-1,-2.333796844E0,2.674921712E0
1.435432479E1,-1.242416382E-1,-1.541793823E-1,-5.523513794E-1,5.867702386E-1
1.436428079E1,1.356778564E0,2.814147949E-2,1.205143890E0,1.814941270E0
1.437423579E1,2.756218414E0,3.550616455E-1,2.921923828E0,4.032424528E0
1.438419179E1,3.748355255E0,6.911128235E-1,4.597988434E0,5.972378227E0
1.439414779E1,4.108356628E0,7.447013855E-1,5.565127258E0,6.957285084E0
1.440410379E1,3.785478058E0,5.141807556E-1,5.929319916E0,7.053443176E0
1.441405879E1,2.768193512E0,4.599934387E-1,5.889053650E0,6.523453240E0
1.442401479E1,1.590292969E0,6.908134460E-1,5.510640564E0,5.776972769E0
1.443397079E1,4.367916870E-1,1.257984009E0,4.935386810E0,5.111883578E0
1.444392579E1,-6.774911499E-1,2.247127075E0,4.256099396E0,4.860345298E0
1.445388179E1,-1.701511688E0,3.455264740E0,3.866459656E0,5.457426749E0
1.446383779E1,-2.539918213E0,4.796625366E0,4.130510559E0,6.820551071E0
1.447379279E1,-2.850971375E0,6.054759064E0,5.339097290E0,8.561197636E0
1.448374879E1,-2.494712219E0,7.326963501E0,7.331603851E0,1.066116308E1
1.449370479E1,-1.728904724E0,8.426127777E0,1.058808197E1,1.364170886E1
1.450365979E1,-1.081800385E0,8.772657166E0,1.463177307E1,1.709440227E1
1.451361579E1,-4.415817261E-2,8.404422913E0,1.895268768E1,2.073259860E1
1.452357179E1,1.768272858E0,7.752229156E0,2.346221008E1,2.477295194E1
1.453352779E1,2.907853088E0,6.800208893E0,2.592204483E1,2.695646228E1
1.454348279E1,2.410587158E0,6.342460785E0,2.625405441E1,2.711665747E1
1.455343879E1,7.499404907E-1,6.862030334E0,2.633728134E1,2.722686650E1
1.456339479E1,-5.876779175E-1,7.204667816E0,2.658441742E1,2.754966158E1
1.457334979E1,-1.804946594E0,7.108717346E0,2.672317886E1,2.771136920E1
1.458330579E1,-2.483186188E0,7.177125092E0,2.660223038E1,2.766506821E1
1.459326179E1,-2.219284973E0,6.948550415E0,2.603715546E1,2.703961987E1
1.460321679E1,-1.520687714E0,6.484814758E0,2.540232559E1,2.626106356E1
1.461317279E1,-3.565585327E-1,5.792953491E0,2.438084976E1,2.506214834E1
1.462312879E1,5.598358154E-1,5.049000549E0,2.263607803E1,2.319909161E1
1.463308479E1,9.327104187E-1,4.357139282E0,2.064177521E1,2.111723219E1
1.464303979E1,7.789801025E-1,3.819457397E0,1.877830032E1,1.917862424E1
1.465299579E1,6.414161682E-1,3.524869995E0,1.642803772E1,1.681417695E1
1.466295179E1,1.016386414E0,3.276536407E0,1.340881622E1,1.384070391E1
1.467290679E1,1.661095734E0,3.115920410E0,1.020143600E1,1.079525338E1
1.468286279E1,2.292333069E0,2.880160675E0,7.402705994E0,8.267416310E0
1.469281879E1,2.570454712E0,2.422412567E0,5.014422455E0,6.133494324E0
1.470277379E1,2.453547821E0,1.786235504E0,3.171604614E0,4.389716394E0
1.471272979E1,2.123035126E0,1.078207855E0,1.729503479E0,2.942956440E0
1.472268579E1,1.711690521E0,4.652325439E-1,6.735992432E-1,1.897382856E0
1.473264079E1,1.237177277E0,3.891906738E-3,-1.332229614E-2,1.237255125E0
1.474259679E1,8.137078857E-1,-4.568499756E-1,-5.297483826E-1,1.073063732E0
1.475255279E1,3.264710999E-1,-8.177494812E-1,-1.197210388E0,1.486139397E0
1.476250879E1,-3.071612549E-1,-8.696914673E-1,-1.923799438E0,2.133474997E0
1.477246379E1,-9.142987061E-1,-6.867718506E-1,-2.503394165E0,2.752195495E0
1.478241979E1,-1.446591797E0,-2.489323425E-1,-2.980152740E0,3.322033337E0
1.479237579E1,-1.955234070E0,2.944377136E-1,-3.375780029E0,3.912227580E0
1.480233079E1,-2.293680267E0,6.438111877E-1,-3.735781403E0,4.430747646E0
1.481228679E1,-2.472707977E0,8.595126343E-1,-3.978277130E0,4.762324604E0
1.482224279E1,-2.627486115E0,9.747729492E-1,-4.107907562E0,4.972803045E0
1.483219779E1,-1.922452240E0,1.333726501E0,-3.847149811E0,4.502800313E0
1.484215379E1,-7.282356262E-1,2.009870453E0,-3.350183258E0,3.974120560E0
1.485210979E1,5.041516113E-1,2.327210541E0,-2.924767914E0,3.771517612E0
1.486206479E1,2.068249054E0,2.359543304E0,-2.156864777E0,3.807514205E0
1.487202079E1,3.356320496E0,2.503244476E0,1.606159973E-1,4.190097574E0
1.488197679E1,3.420237579E0,2.772085419E0,2.942431183E0,5.295317170E0
1.489193279E1,3.339555359E0,2.610122223E0,5.031187592E0,6.578618137E0
1.490188779E1,2.628384247E0,2.381397858E0,7.312593384E0,8.127329297E0
1.491184379E1,1.337618408E0,2.216889954E0,8.716224518E0,9.092656043E0
1.492179979E1,3.219804382E-1,2.470612335E0,9.641450500E0,9.958170739E0
1.493175479E1,1.386117554E-1,3.087329865E0,1.009800110E1,1.056032410E1
1.494171079E1,5.670208740E-1,4.143234100E0,1.089434509E1,1.166938972E1
1.495166679E1,1.281485138E0,5.601202240E0,1.221160583E1,1.349588781E1
1.496162179E1,2.237546997E0,6.958130493E0,1.417252808E1,1.594624560E1
1.497157779E1,3.675606537E0,7.787406006E0,1.727572495E1,1.930296475E1
1.498153379E1,5.223687286E0,8.363108826E0,2.101045853E1,2.320921941E1
1.499148879E1,6.508764954E0,8.363258514E0,2.353525818E1,2.581116990E1
1.500144479E1,6.747668152E0,7.572303314E0,2.390454025E1,2.596724567E1
1.501140079E1,5.133424988E0,7.136709137E0,2.294593369E1,2.457235321E1
1.502135679E1,2.403252411E0,7.680079193E0,2.228999771E1,2.369816948E1
1.503131179E1,4.456233215E-1,8.313711548E0,2.237112900E1,2.387014437E1
1.504126779E1,-5.411247253E-1,8.752898254E0,2.224359421E1,2.390990437E1
1.505122379E1,-3.754193115E-1,8.452922058E0,2.188987976E1,2.346826936E1
1.506117879E1,6.092330933E-1,7.647147675E0,2.198089050E1,2.328109920E1
1.507113479E1,1.707798615E0,7.277566223E0,2.199930222E1,2.323464749E1
1.508109079E1,3.000360718E0,7.154222717E0,2.150996979E1,2.286621673E1
1.509104579E1,3.522325287E0,6.881190491E0,2.019166122E1,2.162084043E1
1.510100179E1,2.757715302E0,6.693929901E0,1.803659271E1,1.943533812E1
1.511095779E1,1.846560059E0,6.227948914E0,1.581581085E1,1.709786550E1
1.512091279E1,1.235680389E0,5.652994537E0,1.341525284E1,1.461000554E1
1.513086879E1,7.635621643E-1,5.361849976E0,1.098580490E1,1.224828036E1
1.514082479E1,8.681945801E-1,5.031187592E0,8.679401093E0,1.006968787E1
1.515078079E1,1.544188843E0,4.306843872E0,6.535259857E0,7.977659100E0
1.516073579E1,2.110311584E0,3.424428864E0,5.087919617E0,6.485911968E0
1.517069179E1,2.432292023E0,2.594255219E0,4.028422852E0,5.373490048E0
1.518064779E1,2.308649139E0,1.853595428E0,3.017125854E0,4.227141503E0
1.519060279E1,1.842967529E0,1.170416107E0,2.085463257E0,3.019198598E0
1.520055879E1,1.105002136E0,5.499563599E-1,1.232836304E0,1.744524884E0
1.521051479E1,1.585203552E-1,1.374142456E-1,4.445755005E-1,4.915879917E-1
1.522046979E1,-9.752220154E-1,-5.089416504E-2,-3.448828125E-1,1.035660345E0
1.523042579E1,-2.132315826E0,-3.068618774E-2,-1.144220581E0,2.420114287E0
1.524038179E1,-3.023412781E0,1.422042847E-2,-1.920356598E0,3.581758859E0
1.525033679E1,-3.579656067E0,-1.649569702E-1,-2.608176270E0,4.432124977E0
1.526029279E1,-3.747157745E0,-4.474195862E-1,-3.025209045E0,4.836658477E0
1.527024858E1,-3.495980072E0,-7.029382324E-1,-3.131338348E0,4.745658929E0
1.528020458E1,-2.724035339E0,-8.427474976E-1,-2.869532776E0,4.045344266E0
1.529015958E1,-1.447489929E0,-8.385562134E-1,-2.339485016E0,2.876037857E0
1.530011558E1,-6.391708374E-2,-8.249345398E-1,-1.641037445E0,1.837826511E0
1.531007158E1,1.342707825E0,-8.285270691E-1,-6.294410706E-1,1.698681097E0
1.532002658E1,2.468816071E0,-8.921447754E-1,4.222718811E-1,2.658813388E0
1.532998258E1,3.110681305E0,-9.080117798E-1,1.254391479E0,3.474812449E0
1.533993858E1,3.165317688E0,-8.723858643E-1,1.812431030E0,3.750359903E0
1.534989358E1,2.709066467E0,-1.010847931E0,2.069596252E0,3.555851981E0
1.535984958E1,2.018103333E0,-1.313518524E0,2.222578125E0,3.276877400E0
1.536980558E1,1.472637634E0,-1.537303162E0,2.373464355E0,3.188306080E0
1.537976058E1,1.084794159E0,-1.487456818E0,2.551444244E0,3.146295263E0
1.538971658E1,7.571255493E-1,-1.377734985E0,2.606080627E0,3.043525755E0
1.539967258E1,3.966751099E-1,-1.149309998E0,2.716850281E0,2.976497953E0
1.540962858E1,2.595602417E-1,-7.668553162E-1,2.883154449E0,2.994664952E0
1.541958358E1,5.336402893E-1,-2.438429260E-1,3.337459717E0,3.388638177E0
1.542953958E1,1.003962250E0,5.276527405E-1,4.233047333E0,4.382356368E0
1.543949558E1,1.736389160E0,1.536704407E0,5.416336670E0,5.891791805E0
1.544945058E1,2.180515594E0,2.786455536E0,6.550677795E0,7.445156969E0
1.545940658E1,1.848356323E0,3.770509186E0,7.433691559E0,8.537735696E0
1.546936258E1,1.676663361E0,4.723277893E0,9.503437500E0,1.074410901E1
1.547931758E1,2.181114349E0,5.572911072E0,1.301288956E1,1.432305457E1
1.548927358E1,4.642445984E0,6.154751129E0,1.828088470E1,1.983995997E1
1.549922958E1,8.158484344E0,6.969656525E0,2.422891571E1,2.649862893E1
1.550918458E1,1.097068634E1,7.842491455E0,2.815824463E1,3.122094444E1
1.551914058E1,1.145492935E1,9.383985901E0,2.988984375E1,3.335681875E1
1.552909658E1,7.758366394E0,1.212328949E1,3.004716660E1,3.331664175E1
1.553905258E1,3.032992859E0,1.482532059E1,3.013712952E1,3.372292620E1
1.554900758E1,7.619155884E-2,1.689042618E1,3.080025055E1,3.512759223E1
1.555896358E1,2.195933533E-1,1.775892014E1,3.125470551E1,3.594835298E1
1.556891958E1,1.323697357E0,1.738948837E1,3.144391205E1,3.595644706E1
1.557887458E1,4.511618042E0,1.671229660E1,3.364583313E1,3.783778062E1
1.558883058E1,6.836283875E0,1.654494461E1,3.484618698E1,3.917558827E1
1.559878658E1,6.490502930E0,1.552990540E1,3.363415741E1,3.761065188E1
1.560874158E1,4.979245605E0,1.361523697E1,3.163521423E1,3.479876929E1
1.561869758E1,3.973038025E0,1.139834702E1,2.856914017E1,3.101456296E1
1.562865358E1,4.069587250E0,9.095984802E0,2.432741089E1,2.628918790E1
1.563860858E1,4.516408081E0,6.804699554E0,1.979184265E1,2.141071959E1
1.564856458E1,4.741390228E0,4.548291779E0,1.569546112E1,1.701514735E1
1.565852058E1,4.568948822E0,2.246827698E0,1.201326828E1,1.304768726E1
1.566847658E1,4.148473206E0,2.718347168E-1,8.813971252E0,9.745245676E0
1.567843158E1,3.565735016E0,-1.213077393E0,6.042334900E0,7.120100702E0
1.568838758E1,2.997965698E0,-2.290985870E0,3.665577393E0,5.260501136E0
1.569834358E1,2.389780426E0,-2.947221222E0,1.786834259E0,4.194036252E0
1.570829858E1,1.794468384E0,-3.382516022E0,3.233276367E-1,3.842664724E0
1.571825458E1,9.413923645E-1,-3.644321594E0,-1.059646454E0,3.910262149E0
1.572821058E1,-1.480421448E-1,-3.701352997E0,-2.470612335E0,4.452623473E0
1.573816558E1,-1.249900818E0,-3.479065247E0,-3.732188873E0,5.253130574E0
1.574812158E1,-2.188149719E0,-2.912643127E0,-4.656965790E0,5.912598375E0
1.575807758E1,-2.975362701E0,-2.189347229E0,-5.325924683E0,6.481627745E0
1.576803258E1,-3.324137421E0,-1.722617798E0,-5.887107697E0,6.976771366E0
1.577798858E1,-3.295097809E0,-1.589993591E0,-6.414910126E0,7.384904949E0
1.578794458E1,-3.139122162E0,-1.616039429E0,-6.594536591E0,7.480212846E0
1.579789958E1,-2.913241882E0,-1.703307953E0,-6.444698181E0,7.274776347E0
1.580785558E1,-2.628983002E0,-1.904639282E0,-6.164630585E0,6.967199772E0
1.581781158E1,-2.371817780E0,-2.233804779E0,-5.693560181E0,6.559880403E0
1.582776758E1,-2.145338745E0,-2.549198914E0,-4.923112335E0,5.944571347E0
1.583772258E1,-1.982178040E0,-2.775827637E0,-4.046235809E0,5.292095339E0
1.584767858E1,-1.799557800E0,-3.037184143E0,-3.330274658E0,4.853207712E0
1.585763458E1,-1.560205536E0,-3.236868896E0,-2.657723236E0,4.469346078E0
1.586758958E1,-1.411115570E0,-3.264112244E0,-1.955383759E0,4.058226403E0
1.587754558E1,-1.088237000E0,-3.176095276E0,-1.310225372E0,3.603960529E0
1.588750158E1,-6.680607605E-1,-2.917433167E0,-8.457412720E-1,3.110144653E0
1.589745658E1,-1.534309387E-1,-2.546205139E0,-4.769082642E-1,2.595022766E0
1.590741258E1,3.463796997E-1,-2.070494385E0,-1.896556091E-1,2.107817626E0
1.591736858E1,6.439608765E-1,-1.561702423E0,1.122665405E-2,1.689297519E0
1.592732358E1,8.881031799E-1,-1.055754547E0,3.237767029E-1,1.417101364E0
1.593727958E1,1.281934204E0,-5.471122742E-1,6.879693604E-1,1.554345195E0
1.594723558E1,1.730102234E0,1.047821045E-3,1.191821594E0,2.100879233E0
1.595719158E1,1.657203827E0,8.105644226E-1,1.959425354E0,2.691224057E0
1.596714658E1,1.351838837E0,1.697470093E0,3.091072083E0,3.776718096E0
1.597710258E1,1.061742096E0,2.583477631E0,4.442910919E0,5.247962498E0
1.598705858E1,6.646179199E-1,3.686982880E0,5.568420410E0,6.711398185E0
1.599701358E1,4.396357727E-1,5.276677094E0,6.238726501E0,8.182805700E0
1.600696958E1,7.113208008E-1,7.166497192E0,6.178551636E0,9.488896648E0
1.601692558E1,1.926942902E0,8.464597778E0,5.888305206E0,1.048974083E1
1.602688058E1,3.718567200E0,8.954379272E0,6.592291260E0,1.172463024E1
1.603683658E1,6.054010620E0,8.862919464E0,1.019559814E1,1.480380382E1
1.604679258E1,7.645351410E0,8.705147552E0,1.656784698E1,2.021693710E1
1.605674758E1,8.025111694E0,8.826245728E0,2.270044418E1,2.564400900E1
1.606670358E1,8.171956329E0,9.503138123E0,2.656840073E1,2.937635821E1
1.607665958E1,8.833730164E0,1.094688583E1,2.706596603E1,3.050304272E1
1.608661558E1,9.198970642E0,1.304806641E1,2.495535507E1,2.962503746E1
1.609657058E1,9.073082428E0,1.545251633E1,2.316717361E1,2.928854757E1
1.610652658E1,8.566535797E0,1.729278946E1,2.309217957E1,3.009443237E1
1.611648258E1,8.163573761E0,1.715941681E1,2.508618301E1,3.147071814E1
1.612643758E1,7.727380829E0,1.554472458E1,2.781440964E1,3.278707459E1
1.613639358E1,6.633305969E0,1.390877655E1,3.011003586E1,3.382409012E1
1.614634958E1,5.654940491E0,1.280362473E1,3.191124023E1,3.484592388E1
1.615630458E1,5.135520630E0,1.207344315E1,3.233830215E1,3.489852988E1
1.616626058E1,4.865332489E0,1.136616394E1,3.085563538E1,3.324050808E1
1.617621658E1,4.596491547E0,1.052072205E1,2.803115891E1,3.029123960E1
1.618617158E1,4.258045349E0,9.454938354E0,2.461930389E1,2.671398386E1
1.619612758E1,3.918251953E0,8.181835785E0,2.074625793E1,2.264293164E1
1.620608358E1,3.611090698E0,6.906188507E0,1.673819275E1,1.846354549E1
1.621603858E1,3.412004700E0,5.660628662E0,1.321631653E1,1.477685743E1
1.622599458E1,3.260519714E0,4.166286163E0,1.013018417E1,1.142845399E1
1.623595058E1,2.919079742E0,2.567311249E0,7.503895569E0,8.451068708E0
1.624590658E1,2.502196655E0,1.130000153E0,5.372328186E0,6.033224559E0
1.625586158E1,2.072290649E0,-1.856140137E-2,3.447031860E0,4.022034523E0
1.626581704E1,1.640289001E0,-7.532336426E-1,1.683549042E0,2.468247618E0
1.627577304E1,1.161883850E0,-1.267264709E0,1.231938171E-1,1.723690994E0
1.628572804E1,7.544311523E-1,-1.828148346E0,-1.288370819E0,2.360337286E0
1.629568404E1,3.079096985E-1,-2.335593109E0,-2.304607544E0,3.295606088E0
1.630564004E1,-2.347119141E-1,-2.690804443E0,-2.899919586E0,3.962959985E0
1.631559504E1,-8.551716614E-1,-2.942580872E0,-3.174299011E0,4.412060173E0
1.632555104E1,-1.547332306E0,-2.939736786E0,-3.359913025E0,4.724966155E0
1.633550704E1,-2.172881470E0,-2.800077209E0,-3.516038361E0,4.992431473E0
1.634546204E1,-2.691403198E0,-2.536625061E0,-3.627706146E0,5.180576200E0
1.635541804E1,-3.119662628E0,-2.212099915E0,-3.711980896E0,5.329585642E0
1.636537404E1,-3.359913025E0,-1.919009399E0,-3.920946350E0,5.508668886E0
1.637533004E1,-3.297941895E0,-1.784888306E0,-4.198618927E0,5.629444724E0
1.638528504E1,-2.884950714E0,-1.822909241E0,-4.429888000E0,5.591944780E0
1.639524104E1,-2.243235168E0,-2.003882904E0,-4.296066284E0,5.244409998E0
1.640519704E1,-1.586401062E0,-2.382745056E0,-3.603456573E0,4.602069275E0
1.641515204E1,-9.641450500E-1,-2.703078918E0,-2.513423309E0,3.814906034E0
1.642510804E1,-5.369334412E-1,-2.816992035E0,-1.483115845E0,3.228525090E0
1.643506404E1,-1.652563477E-1,-2.772833862E0,-6.539900208E-1,2.853702899E0
1.644501904E1,3.115022278E-1,-2.436932373E0,-3.248245239E-2,2.456975405E0
1.645497504E1,7.915539551E-1,-1.839225311E0,1.893562317E-1,2.011259106E0
1.646493104E1,1.177601166E0,-1.011895752E0,1.216969299E-1,1.557397721E0
1.647488604E1,1.530417480E0,-1.017883301E-2,2.832110596E-1,1.556434958E0
1.648484204E1,1.581910400E0,1.172960815E0,1.025068359E0,2.220144754E0
1.649479804E1,1.191222839E0,2.539918213E0,2.016905823E0,3.455156361E0
1.650475304E1,4.617897034E-1,4.068988495E0,3.102747803E0,5.137797293E0
1.651470904E1,-5.959107971E-1,5.972130890E0,4.094285889E0,7.265303434E0
1.652466504E1,-1.609902191E0,7.842042389E0,4.326453094E0,9.099868695E0
1.653462104E1,-1.171763306E0,9.053024139E0,4.638254700E0,1.023932039E1
1.654457604E1,2.532733154E-1,1.028301636E1,6.181695099E0,1.200074694E1
1.655453204E1,1.656305695E0,1.171718399E1,9.330097961E0,1.506938875E1
1.656448804E1,3.404370575E0,1.293879364E1,1.421788376E1,1.952307195E1
1.657444304E1,4.794978790E0,1.393272675E1,1.936732544E1,2.433528284E1
1.658439904E1,5.895340576E0,1.440709030E1,2.253668472E1,2.739017068E1
1.659435504E1,8.059091034E0,1.429676971E1,2.418101532E1,2.922444310E1
1.660431004E1,1.096245346E1,1.446262482E1,2.633713165E1,3.198417431E1
1.661426604E1,1.254271729E1,1.524175461E1,2.907463898E1,3.514207552E1
1.662422204E1,1.225007584E1,1.513592468E1,3.149420746E1,3.702763397E1
1.663417704E1,1.072923843E1,1.383333344E1,3.354763733E1,3.784074050E1
1.664413304E1,9.026828613E0,1.264570312E1,3.513972656E1,3.842131993E1
